trial_nr	onset	event_type	phase	response	nr_frames	prob1	prob2	n1	n2	choice	certainty	onset_abs	duration
1.0	0.08105831779539585	stim	0		34							4.005576312774792	1.1493936472106725
1.0	1.2093354519456625	response	0	space								5.133853446925059	
1.0	1.2304519650060683	stim	0		151							5.154969959985465	5.016669521806762
1.0	3.5164894508197904	response	0	j								7.441007445799187	
1.0	6.24712148681283	stim	0		9	0.55	1.0	9.0	7.0			10.171639481792226	0.29981969599612057
1.0	6.5469411828089505	stim	1		15	0.55	1.0	9.0	7.0			10.471459177788347	0.4996615070849657
1.0	7.046602689893916	stim	2		18	0.55	1.0	9.0	7.0			10.971120684873313	0.5999432990793139
1.0	7.64654598897323	stim	3		45	0.55	1.0	9.0	7.0			11.571063983952627	1.4993044449947774
1.0	9.145850433968008	stim	4		9	0.55	1.0	9.0	7.0			13.070368428947404	0.3006276679225266
1.0	9.446478101890534	stim	5		15	0.55	1.0	9.0	7.0			13.37099609686993	0.4998552240431309
1.0	9.946333325933665	stim	6		18	0.55	1.0	9.0	7.0			13.870851320913061	0.6006412259303033
1.0	10.546974551863968	stim	7		33	0.55	1.0	9.0	7.0			14.471492546843365	1.1097661929670721
1.0	11.648799111833796	response	7	j		0.55	1.0	9.0	7.0			15.573317106813192	
1.0	11.65674074483104	choice	7		73					1.0		15.581258739810437	1.3278522950131446
1.0	12.950963927898556	response	7	k		0.55	1.0	9.0	7.0			16.875481922877952	
1.0	12.984593039844185	certainty	7		105						2.0	16.90911103482358	1.0618505841121078
2.0	14.046443623956293	stim	0		9	0.55	1.0	16.0	5.0			17.97096161893569	0.3004379919730127
2.0	14.346881615929306	stim	1		15	0.55	1.0	16.0	5.0			18.271399610908702	0.49998404597863555
2.0	14.846865661907941	stim	2		18	0.55	1.0	16.0	5.0			18.771383656887338	0.5995541398879141
2.0	15.446419801795855	stim	3		45	0.55	1.0	16.0	5.0			19.37093779677525	1.4999334160238504
2.0	16.946353217819706	stim	4		9	0.55	1.0	16.0	5.0			20.870871212799102	0.29912799317389727
2.0	17.245481210993603	stim	5		15	0.55	1.0	16.0	5.0			21.169999205973	0.5009647358674556
2.0	17.74644594686106	stim	6		18	0.55	1.0	16.0	5.0			21.670963941840455	0.6001004721038043
2.0	18.346546418964863	stim	7		61	0.55	1.0	16.0	5.0			22.27106441394426	2.040479689836502
2.0	20.349369267001748	response	7	j		0.55	1.0	16.0	5.0			24.273887261981145	
2.0	20.387026108801365	choice	7		88					1.0		24.31154410378076	0.9007683091331273
2.0	21.283125129994005	response	7	k		0.55	1.0	16.0	5.0			25.2076431249734	
2.0	21.287794417934492	certainty	7		105						2.0	25.21231241291389	0.5580131460446864
3.0	21.84580756397918	stim	0		9	0.55	1.0	47.0	20.0			25.770325558958575	0.3001154279336333
3.0	22.145922991912812	stim	1		15	0.55	1.0	47.0	20.0			26.07044098689221	0.5004061448853463
3.0	22.64632913679816	stim	2		18	0.55	1.0	47.0	20.0			26.570847131777555	0.6011985100340098
3.0	23.247527646832168	stim	3		45	0.55	1.0	47.0	20.0			27.172045641811565	1.4987475001253188
3.0	24.746275146957487	stim	4		9	0.55	1.0	47.0	20.0			28.670793141936883	0.2999807440210134
3.0	25.0462558909785	stim	5		15	0.55	1.0	47.0	20.0			28.970773885957897	0.4997694119811058
3.0	25.546025302959606	stim	6		18	0.55	1.0	47.0	20.0			29.470543297939003	0.6001317498739809
3.0	26.146157052833587	stim	7		48	0.55	1.0	47.0	20.0			30.070675047812983	1.6073589180596173
3.0	27.747506147949025	response	7	j		0.55	1.0	47.0	20.0			31.67202414292842	
3.0	27.753515970893204	choice	7		94					1.0		31.6780339658726	1.5835510150063783
3.0	29.33256599889137	response	7	l		0.55	1.0	47.0	20.0			33.257083993870765	
3.0	29.337066985899583	certainty	7		104						3.0	33.26158498087898	0.3253299400676042
4.0	29.662396925967187	stim	0		9	0.55	1.0	23.0	20.0			33.58691492094658	0.2997109938878566
4.0	29.962107919855043	stim	1		15	0.55	1.0	23.0	20.0			33.88662591483444	0.5023748599924147
4.0	30.464482779847458	stim	2		18	0.55	1.0	23.0	20.0			34.389000774826854	0.5982467930298299
4.0	31.062729572877288	stim	3		45	0.55	1.0	23.0	20.0			34.987247567856684	1.4994823951274157
4.0	32.5622119680047	stim	4		9	0.55	1.0	23.0	20.0			36.4867299629841	0.30069964099675417
4.0	32.86291160900146	stim	5		15	0.55	1.0	23.0	20.0			36.787429603980854	0.4998065398540348
4.0	33.36271814885549	stim	6		18	0.55	1.0	23.0	20.0			37.28723614383489	0.5997681310400367
4.0	33.96248627989553	stim	7		24	0.55	1.0	23.0	20.0			37.887004274874926	0.808042525080964
4.0	34.76397208077833	response	7	k		0.55	1.0	23.0	20.0			38.68849007575773	
4.0	34.77052880497649	choice	7		51					2.0		38.69504679995589	0.9004800259135664
4.0	35.66635605599731	response	7	l		0.55	1.0	23.0	20.0			39.59087405097671	
4.0	35.67100883089006	certainty	7		105						3.0	39.595526825869456	1.7915275490377098
5.0	37.46253637992777	stim	0		9	0.55	1.0	14.0	5.0			41.387054374907166	0.29945960408076644
5.0	37.761995984008536	stim	1		15	0.55	1.0	14.0	5.0			41.68651397898793	0.5009255839977413
5.0	38.26292156800628	stim	2		18	0.55	1.0	14.0	5.0			42.18743956298567	0.5999419949948788
5.0	38.862863563001156	stim	3		45	0.55	1.0	14.0	5.0			42.78738155798055	1.4996525389142334
5.0	40.36251610191539	stim	4		9	0.55	1.0	14.0	5.0			44.287034096894786	0.3000203990377486
5.0	40.66253650095314	stim	5		15	0.55	1.0	14.0	5.0			44.587054495932534	0.5002603358589113
5.0	41.16279683681205	stim	6		18	0.55	1.0	14.0	5.0			45.087314831791446	0.5990991920698434
5.0	41.76189602888189	stim	7		44	0.55	1.0	14.0	5.0			45.68641402386129	1.4613002149853855
5.0	43.216544889844954	response	7	j		0.55	1.0	14.0	5.0			47.14106288482435	
5.0	43.22319624386728	choice	7		68					1.0		47.147714238846675	0.812150320969522
5.0	44.030782255809754	response	7	j		0.55	1.0	14.0	5.0			47.95530025078915	
5.0	44.0353465648368	certainty	7		105						1.0	47.9598645598162	1.2274064801167697
6.0	45.26275304495357	stim	0		9	0.55	1.0	23.0	7.0			49.187271039932966	0.2996168320532888
6.0	45.56236987700686	stim	1		15	0.55	1.0	23.0	7.0			49.486887871986255	0.499259018804878
6.0	46.06162889581174	stim	2		18	0.55	1.0	23.0	7.0			49.98614689079113	0.600767657160759
6.0	46.662396552972496	stim	3		45	0.55	1.0	23.0	7.0			50.58691454795189	1.4998944378457963
6.0	48.16229099081829	stim	4		9	0.55	1.0	23.0	7.0			52.08680898579769	0.28472267207689583
6.0	48.44701366289519	stim	5		15	0.55	1.0	23.0	7.0			52.371531657874584	0.4996186699718237
6.0	48.94663233286701	stim	6		18	0.55	1.0	23.0	7.0			52.87115032784641	0.6005474710837007
6.0	49.54717980395071	stim	7		49	0.55	1.0	23.0	7.0			53.47169779893011	1.655873087933287
6.0	51.1496515260078	response	7	j		0.55	1.0	23.0	7.0			55.0741695209872	
6.0	51.203052891884	choice	7		70					1.0		55.127570886863396	0.6997647411189973
6.0	51.898190228966996	response	7	j		0.55	1.0	23.0	7.0			55.82270822394639	
6.0	51.902817633002996	certainty	7		105						1.0	55.82733562798239	1.1436359158251435
7.0	53.04645354882814	stim	0		9	0.55	1.0	80.0	20.0			56.970971543807536	0.30025824904441833
7.0	53.34671179787256	stim	1		15	0.55	1.0	80.0	20.0			57.271229792851955	0.49967672396451235
7.0	53.84638852183707	stim	2		18	0.55	1.0	80.0	20.0			57.77090651681647	0.6158058610744774
7.0	54.46219438291155	stim	3		45	0.55	1.0	80.0	20.0			58.386712377890944	1.4999840690288693
7.0	55.96217845194042	stim	4		9	0.55	1.0	80.0	20.0			59.886696446919814	0.29994811303913593
7.0	56.26212656497955	stim	5		15	0.55	1.0	80.0	20.0			60.18664455995895	0.4845478408969939
7.0	56.74667440587655	stim	6		18	0.55	1.0	80.0	20.0			60.671192400855944	0.6155663400422782
7.0	57.362240745918825	stim	7		19	0.55	1.0	80.0	20.0			61.28675874089822	0.6253071040846407
7.0	57.96520720189437	response	7	j		0.55	1.0	80.0	20.0			61.88972519687377	
7.0	57.987547850003466	choice	7		49					1.0		61.91206584498286	1.0155097148381174
7.0	58.99840111890808	response	7	l		0.55	1.0	80.0	20.0			62.922919113887474	
7.0	59.00305756484158	certainty	7		105						3.0	62.92757555982098	1.8592421330977231
8.0	60.86229969793931	stim	0		9	0.55	1.0	11.0	10.0			64.7868176929187	0.2996665339451283
8.0	61.161966231884435	stim	1		15	0.55	1.0	11.0	10.0			65.08648422686383	0.5001222400460392
8.0	61.662088471930474	stim	2		18	0.55	1.0	11.0	10.0			65.58660646690987	0.5842246778775007
8.0	62.246313149807975	stim	3		45	0.55	1.0	11.0	10.0			66.17083114478737	1.514821934979409
8.0	63.761135084787384	stim	4		9	0.55	1.0	11.0	10.0			67.68565307976678	0.30086504900828004
8.0	64.06200013379566	stim	5		15	0.55	1.0	11.0	10.0			67.98651812877506	0.4846180381719023
8.0	64.54661817196757	stim	6		18	0.55	1.0	11.0	10.0			68.47113616694696	0.6153218660037965
8.0	65.16194003797136	stim	7		11	0.55	1.0	11.0	10.0			69.08645803295076	0.37642600294202566
8.0	65.53143852879293	response	7	k		0.55	1.0	11.0	10.0			69.45595652377233	
8.0	65.53836604091339	choice	7		32					2.0		69.46288403589278	0.697628540918231
8.0	66.23130460781977	response	7	l		0.55	1.0	11.0	10.0			70.15582260279916	
8.0	66.23599458183162	certainty	7		105						3.0	70.16051257681102	2.426199503010139
9.0	68.66219408484176	stim	0		9	0.55	1.0	11.0	7.0			72.58671207982115	0.29953888012096286
9.0	68.96173296496272	stim	1		15	0.55	1.0	11.0	7.0			72.88625095994212	0.5004231079947203
9.0	69.46215607295744	stim	2		18	0.55	1.0	11.0	7.0			73.38667406793684	0.5845566960051656
9.0	70.0467127689626	stim	3		45	0.55	1.0	11.0	7.0			73.971230763942	1.5145671518985182
9.0	71.56127992086112	stim	4		9	0.55	1.0	11.0	7.0			75.48579791584052	0.29973110905848444
9.0	71.86101102991961	stim	5		15	0.55	1.0	11.0	7.0			75.785529024899	0.5007877228781581
9.0	72.36179875279777	stim	6		18	0.55	1.0	11.0	7.0			76.28631674777716	0.5999940000474453
9.0	72.96179275284521	stim	7		46	0.55	1.0	11.0	7.0			76.88631074782461	1.540162970079109
9.0	74.46475567878224	response	7	k		0.55	1.0	11.0	7.0			78.38927367376164	
9.0	74.50195572292432	choice	7		69					2.0		78.42647371790372	0.7672889330424368
9.0	75.26470003486611	response	7	k		0.55	1.0	11.0	7.0			79.1892180298455	
9.0	75.26924465596676	certainty	7		105						2.0	79.19376265094616	1.1770458738319576
10.0	76.44629052979872	stim	0		9	0.55	1.0	7.0	5.0			80.37080852477811	0.31509758019819856
10.0	76.76138810999691	stim	1		15	0.55	1.0	7.0	5.0			80.68590610497631	0.4990819408558309
10.0	77.26047005085275	stim	2		18	0.55	1.0	7.0	5.0			81.18498804583214	0.6012030651327223
10.0	77.86167311598547	stim	3		45	0.55	1.0	7.0	5.0			81.78619111096486	1.4993375658523291
10.0	79.3610106818378	stim	4		9	0.55	1.0	7.0	5.0			83.2855286768172	0.3009185951668769
10.0	79.66192927700467	stim	5		15	0.55	1.0	7.0	5.0			83.58644727198407	0.4991670597810298
10.0	80.1610963367857	stim	6		18	0.55	1.0	7.0	5.0			84.0856143317651	0.5858504471834749
10.0	80.74694678396918	stim	7		21	0.55	1.0	7.0	5.0			84.67146477894858	0.7236192009877414
10.0	81.46389263798483	response	7	k		0.55	1.0	7.0	5.0			85.38841063296422	
10.0	81.47056598495692	choice	7		52					2.0		85.39508397993632	1.0319159899372607
10.0	82.4977819188498	response	7	l		0.55	1.0	7.0	5.0			86.42229991382919	
10.0	82.50248197489418	certainty	7		105						3.0	86.42699996987358	1.7444466969463974
11.0	84.24692867184058	stim	0		9	0.55	1.0	20.0	5.0			88.17144666681997	0.29984778305515647
11.0	84.54677645489573	stim	1		15	0.55	1.0	20.0	5.0			88.47129444987513	0.4996893520001322
11.0	85.04646580689587	stim	2		18	0.55	1.0	20.0	5.0			88.97098380187526	0.6150453090667725
11.0	85.66151111596264	stim	3		45	0.55	1.0	20.0	5.0			89.58602911094204	1.4851860739290714
11.0	87.14669718989171	stim	4		9	0.55	1.0	20.0	5.0			91.07121518487111	0.31402050191536546
11.0	87.46071769180708	stim	5		15	0.55	1.0	20.0	5.0			91.38523568678647	0.48600974306464195
11.0	87.94672743487172	stim	6		18	0.55	1.0	20.0	5.0			91.87124542985111	0.5995730969589204
11.0	88.54630053183064	stim	7		16	0.55	1.0	20.0	5.0			92.47081852681004	0.5576173420995474
11.0	89.09775659698062	response	7	j		0.55	1.0	20.0	5.0			93.02227459196001	
11.0	89.10391787393019	choice	7		37					1.0		93.02843586890958	0.6977740570437163
11.0	89.79724353598431	response	7	k		0.55	1.0	20.0	5.0			93.7217615309637	
11.0	89.8016919309739	certainty	7		105						2.0	93.7262099259533	2.2449004258960485
12.0	92.04659235686995	stim	0		9	0.55	1.0	94.0	28.0			95.97111035184935	0.3146713280584663
12.0	92.36126368492842	stim	1		15	0.55	1.0	94.0	28.0			96.28578167990781	0.5167412399314344
12.0	92.87800492485985	stim	2		15	0.55	1.0	94.0	28.0			96.80252291983925	0.5686680690851063
12.0	93.44667299394496	stim	3		45	0.55	1.0	94.0	28.0			97.37119098892435	1.5145154669880867
12.0	94.96118846093304	stim	4		9	0.55	1.0	94.0	28.0			98.88570645591244	0.300050375983119
12.0	95.26123883691616	stim	5		15	0.55	1.0	94.0	28.0			99.18575683189556	0.4850802740547806
12.0	95.74631911097094	stim	6		18	0.55	1.0	94.0	28.0			99.67083710595034	0.6148197068832815
12.0	96.36113881785423	stim	7		29	0.55	1.0	94.0	28.0			100.28565681283362	0.9601458599790931
12.0	97.31529792188667	response	7	j		0.55	1.0	94.0	28.0			101.23981591686606	
12.0	97.32128467783332	choice	7		57					1.0		101.24580267281272	0.932230536127463
12.0	98.2490096387919	response	7	l		0.55	1.0	94.0	28.0			102.1735276337713	
12.0	98.25351521396078	certainty	7		105						3.0	102.17803320894018	1.5936141719575971
13.0	99.84712938591838	stim	0		9	0.55	1.0	11.0	5.0			103.77164738089778	0.29942266386933625
13.0	100.14655204978772	stim	1		15	0.55	1.0	11.0	5.0			104.07107004476711	0.4987219402100891
13.0	100.6452739899978	stim	2		18	0.55	1.0	11.0	5.0			104.5697919849772	0.6018056748434901
13.0	101.2470796648413	stim	3		45	0.55	1.0	11.0	5.0			105.17159765982069	1.513995337067172
13.0	102.76107500190847	stim	4		9	0.55	1.0	11.0	5.0			106.68559299688786	0.2855911459773779
13.0	103.04666614788584	stim	5		15	0.55	1.0	11.0	5.0			106.97118414286524	0.5003895810805261
13.0	103.54705572896637	stim	6		18	0.55	1.0	11.0	5.0			107.47157372394577	0.5989166749641299
13.0	104.1459724039305	stim	7		1	0.55	1.0	11.0	5.0			108.0704903989099	0.0570118089672178
13.0	104.19635809096508	response	7	j		0.55	1.0	11.0	5.0			108.12087608594447	
13.0	104.20298421289772	choice	7		28					1.0		108.12750220787711	0.8842104070354253
13.0	105.0826737578027	response	7	k		0.55	1.0	11.0	5.0			109.00719175278209	
13.0	105.08719461993314	certainty	7		105						2.0	109.01171261491254	2.559607716044411
14.0	107.64680233597755	stim	0		9	0.55	1.0	47.0	14.0			111.57132033095695	0.2995286569930613
14.0	107.94633099297062	stim	1		15	0.55	1.0	47.0	14.0			111.87084898795001	0.499982857843861
14.0	108.44631385081448	stim	2		18	0.55	1.0	47.0	14.0			112.37083184579387	0.6003751701209694
14.0	109.04668902093545	stim	3		45	0.55	1.0	47.0	14.0			112.97120701591484	1.4997287159785628
14.0	110.54641773691401	stim	4		9	0.55	1.0	47.0	14.0			114.4709357318934	0.29943734407424927
14.0	110.84585508098826	stim	5		15	0.55	1.0	47.0	14.0			114.77037307596765	0.501024184981361
14.0	111.34687926596962	stim	6		18	0.55	1.0	47.0	14.0			115.27139726094902	0.5993817439302802
14.0	111.9462610098999	stim	7		13	0.55	1.0	47.0	14.0			115.8707790048793	0.44300310290418565
14.0	112.38287851097994	response	7	j		0.55	1.0	47.0	14.0			116.30739650595933	
14.0	112.38926411280409	choice	7		37					1.0		116.31378210778348	0.7981767531018704
14.0	113.18295970396139	response	7	k		0.55	1.0	47.0	14.0			117.10747769894078	
14.0	113.18744086590596	certainty	7		105						2.0	117.11195886088535	2.258987881941721
15.0	115.44642874784768	stim	0		9	0.55	1.0	33.0	28.0			119.37094674282707	0.2996311441529542
15.0	115.74605989200063	stim	1		15	0.55	1.0	33.0	28.0			119.67057788698003	0.49996774294413626
15.0	116.24602763494477	stim	2		18	0.55	1.0	33.0	28.0			120.17054562992416	0.600373059976846
15.0	116.84640069492161	stim	3		45	0.55	1.0	33.0	28.0			120.77091868990101	1.5005709680262953
15.0	118.34697166294791	stim	4		9	0.55	1.0	33.0	28.0			122.2714896579273	0.2987677298951894
15.0	118.6457393928431	stim	5		15	0.55	1.0	33.0	28.0			122.5702573878225	0.502698291093111
15.0	119.14843768393621	stim	6		18	0.55	1.0	33.0	28.0			123.0729556789156	0.598018127027899
15.0	119.74645581096411	stim	7		4	0.55	1.0	33.0	28.0			123.6709738059435	0.15895982086658478
15.0	119.89944661594927	response	7	k		0.55	1.0	33.0	28.0			123.82396461092867	
15.0	119.90541563183069	choice	7		29					2.0		123.82993362681009	0.8139210629742593
15.0	120.71509908698499	response	7	l		0.55	1.0	33.0	28.0			124.63961708196439	
15.0	120.71933669480495	certainty	7		105						3.0	124.64385468978435	2.5274567240849137
16.0	123.24679341888987	stim	0		9	0.55	1.0	67.0	20.0			127.17131141386926	0.29999537696130574
16.0	123.54678879585117	stim	1		15	0.55	1.0	67.0	20.0			127.47130679083057	0.5007951511070132
16.0	124.04758394695818	stim	2		17	0.55	1.0	67.0	20.0			127.97210194193758	0.599162831902504
16.0	124.64674677886069	stim	3		45	0.55	1.0	67.0	20.0			128.57126477384008	1.4990613679401577
16.0	126.14580814680085	stim	4		9	0.55	1.0	67.0	20.0			130.07032614178024	0.3008473301306367
16.0	126.44665547693148	stim	5		15	0.55	1.0	67.0	20.0			130.37117347191088	0.4992514098994434
16.0	126.94590688683093	stim	6		18	0.55	1.0	67.0	20.0			130.87042488181032	0.600069415057078
16.0	127.545976301888	stim	7		11	0.55	1.0	67.0	20.0			131.4704942968674	0.37420527008362114
16.0	127.91449399688281	response	7	j		0.55	1.0	67.0	20.0			131.8390119918622	
16.0	127.92018157197163	choice	7		57					1.0		131.84469956695102	1.5336505929008126
16.0	129.44915051478893	response	7	j		0.55	1.0	67.0	20.0			133.37366850976832	
16.0	129.45383216487244	certainty	7		105						1.0	133.37835015985183	1.5927344779483974
1.0	131.04656664282084	stim	0		150							134.97108463780023	4.998733208980411
17.0	136.04529985180125	stim	0		9	1.0	0.55	28.0	112.0			139.96981784678064	0.30062210909090936
17.0	136.34592196089216	stim	1		15	1.0	0.55	28.0	112.0			140.27043995587155	0.5007469889242202
17.0	136.84666894981638	stim	2		18	1.0	0.55	28.0	112.0			140.77118694479577	0.5988112851046026
17.0	137.44548023492098	stim	3		45	1.0	0.55	28.0	112.0			141.36999822990038	1.500946668908
17.0	138.94642690382898	stim	4		9	1.0	0.55	28.0	112.0			142.87094489880838	0.30060261115431786
17.0	139.2470295149833	stim	5		15	1.0	0.55	28.0	112.0			143.1715475099627	0.5123185620177537
17.0	139.75934807700105	stim	6		13	1.0	0.55	28.0	112.0			143.68386607198045	0.6206331357825547
17.0	140.3799812127836	stim	7		14	1.0	0.55	28.0	112.0			144.304499207763	0.47375876922160387
17.0	140.84792257798836	response	7	k		1.0	0.55	28.0	112.0			144.77244057296775	
17.0	140.8537399820052	choice	7		45					2.0		144.7782579769846	1.0326536637730896
17.0	141.88184210588224	response	7	l		1.0	0.55	28.0	112.0			145.80636010086164	
17.0	141.8863936457783	certainty	7		104						3.0	145.8109116407577	1.959147877059877
18.0	143.84554152283818	stim	0		9	1.0	0.55	28.0	66.0			147.77005951781757	0.30096310400404036
18.0	144.14650462684222	stim	1		15	1.0	0.55	28.0	66.0			148.0710226218216	0.5002133219968528
18.0	144.64671794883907	stim	2		18	1.0	0.55	28.0	66.0			148.57123594381846	0.5997267081402242
18.0	145.2464446569793	stim	3		45	1.0	0.55	28.0	66.0			149.1709626519587	1.4994747168384492
18.0	146.74591937381774	stim	4		9	1.0	0.55	28.0	66.0			150.67043736879714	0.30051053618080914
18.0	147.04642990999855	stim	5		15	1.0	0.55	28.0	66.0			150.97094790497795	0.49992191488854587
18.0	147.5463518248871	stim	6		18	1.0	0.55	28.0	66.0			151.4708698198665	0.5998973320238292
18.0	148.14624915691093	stim	7		57	1.0	0.55	28.0	66.0			152.07076715189032	1.9092123419977725
18.0	150.04879714897834	response	7	j		1.0	0.55	28.0	66.0			153.97331514395773	
18.0	150.0554614989087	choice	7		88					1.0		153.9799794938881	1.0296550679486245
18.0	151.05100419581868	response	7	k		1.0	0.55	28.0	66.0			154.97552219079807	
18.0	151.08511656685732	certainty	7		105						2.0	155.00963456183672	0.5609972919337451
19.0	151.64611385879107	stim	0		9	1.0	0.55	14.0	47.0			155.57063185377046	0.3002955561969429
19.0	151.946409414988	stim	1		15	1.0	0.55	14.0	47.0			155.8709274099674	0.49971745582297444
19.0	152.44612687081099	stim	2		18	1.0	0.55	14.0	47.0			156.37064486579038	0.5996698990929872
19.0	153.04579676990397	stim	3		45	1.0	0.55	14.0	47.0			156.97031476488337	1.5001667640171945
19.0	154.54596353392117	stim	4		9	1.0	0.55	14.0	47.0			158.47048152890056	0.30028936895541847
19.0	154.84625290287659	stim	5		15	1.0	0.55	14.0	47.0			158.77077089785598	0.4991460090968758
19.0	155.34539891197346	stim	6		18	1.0	0.55	14.0	47.0			159.26991690695286	0.6006336729042232
19.0	155.94603258487768	stim	7		9	1.0	0.55	14.0	47.0			159.87055057985708	0.3094541560858488
19.0	156.24885030696169	response	7	k		1.0	0.55	14.0	47.0			160.17336830194108	
19.0	156.25548674096353	choice	7		33					2.0		160.18000473594293	0.7976137339137495
19.0	157.04852602491155	response	7	l		1.0	0.55	14.0	47.0			160.97304401989095	
19.0	157.05310047487728	certainty	7		105						3.0	160.97761846985668	2.3930385299026966
20.0	159.44613900477998	stim	0		9	1.0	0.55	20.0	80.0			163.37065699975938	0.3002237561158836
20.0	159.74636276089586	stim	1		15	1.0	0.55	20.0	80.0			163.67088075587526	0.4993626920040697
20.0	160.24572545289993	stim	2		18	1.0	0.55	20.0	80.0			164.17024344787933	0.5995699290651828
20.0	160.84529538196512	stim	3		45	1.0	0.55	20.0	80.0			164.7698133769445	1.5006685839034617
20.0	162.34596396586858	stim	4		9	1.0	0.55	20.0	80.0			166.27048196084797	0.3003601310774684
20.0	162.64632409694605	stim	5		15	1.0	0.55	20.0	80.0			166.57084209192544	0.4993992419913411
20.0	163.1457233389374	stim	6		18	1.0	0.55	20.0	80.0			167.07024133391678	0.6005626749247313
20.0	163.74628601386212	stim	7		36	1.0	0.55	20.0	80.0			167.67080400884151	1.2099588180426508
20.0	164.9490691178944	response	7	k		1.0	0.55	20.0	80.0			168.8735871128738	
20.0	164.95624483190477	choice	7		73					2.0		168.88076282688417	1.2309216980356723
20.0	166.18248017085716	response	7	semicolon		1.0	0.55	20.0	80.0			170.10699816583656	
20.0	166.18716652994044	certainty	7		105						4.0	170.11168452491984	1.058169940020889
21.0	167.24533646996133	stim	0		9	1.0	0.55	5.0	14.0			171.16985446494073	0.30094329500570893
21.0	167.54627976496704	stim	1		15	1.0	0.55	5.0	14.0			171.47079775994644	0.49950195592828095
21.0	168.04578172089532	stim	2		18	1.0	0.55	5.0	14.0			171.97029971587472	0.6005098689347506
21.0	168.64629158983007	stim	3		45	1.0	0.55	5.0	14.0			172.57080958480947	1.4993505631573498
21.0	170.14564215298742	stim	4		9	1.0	0.55	5.0	14.0			174.07016014796682	0.3004633418750018
21.0	170.44610549486242	stim	5		15	1.0	0.55	5.0	14.0			174.37062348984182	0.5001850069966167
21.0	170.94629050185904	stim	6		18	1.0	0.55	5.0	14.0			174.87080849683844	0.5998565030749887
21.0	171.54614700493403	stim	7		38	1.0	0.55	5.0	14.0			175.47066499991342	1.275274446932599
21.0	172.81513173691928	response	7	k		1.0	0.55	5.0	14.0			176.73964973189868	
21.0	172.82142145186663	choice	7		59					2.0		176.74593944684602	0.6976903949398547
21.0	173.51439336990006	response	7	k		1.0	0.55	5.0	14.0			177.43891136487946	
21.0	173.51911184680648	certainty	7		105						2.0	177.44362984178588	1.5265197490807623
22.0	175.04563159588724	stim	0		9	1.0	0.55	10.0	16.0			178.97014959086664	0.2999315350316465
22.0	175.3455631309189	stim	1		15	1.0	0.55	10.0	16.0			179.2700811258983	0.5004401509650052
22.0	175.8460032818839	stim	2		18	1.0	0.55	10.0	16.0			179.7705212768633	0.6001864259596914
22.0	176.4461897078436	stim	3		45	1.0	0.55	10.0	16.0			180.37070770282298	1.4992035860195756
22.0	177.94539329386316	stim	4		9	1.0	0.55	10.0	16.0			181.86991128884256	0.3005276781041175
22.0	178.24592097196728	stim	5		15	1.0	0.55	10.0	16.0			182.17043896694668	0.5000649578869343
22.0	178.7459859298542	stim	6		18	1.0	0.55	10.0	16.0			182.6705039248336	0.5996221769601107
22.0	179.34560810681432	stim	7		15	1.0	0.55	10.0	16.0			183.27012610179372	0.5081036940682679
22.0	179.84767273487523	response	7	k		1.0	0.55	10.0	16.0			183.77219072985463	
22.0	179.8537118008826	choice	7		42					2.0		183.778229795862	0.8982168359216303
22.0	180.74767909990624	response	7	j		1.0	0.55	10.0	16.0			184.67219709488563	
22.0	180.75192863680422	certainty	7		105						1.0	184.67644663178362	2.094075086992234
23.0	182.84600372379646	stim	0		9	1.0	0.55	20.0	33.0			186.77052171877585	0.298915300052613
23.0	183.14491902384907	stim	1		15	1.0	0.55	20.0	33.0			187.06943701882847	0.5012122991029173
23.0	183.646131322952	stim	2		18	1.0	0.55	20.0	33.0			187.57064931793138	0.6001805709674954
23.0	184.24631189391948	stim	3		45	1.0	0.55	20.0	33.0			188.17082988889888	1.4994291858747602
23.0	185.74574107979424	stim	4		9	1.0	0.55	20.0	33.0			189.67025907477364	0.3001459331717342
23.0	186.04588701296598	stim	5		15	1.0	0.55	20.0	33.0			189.97040500794537	0.49990549497306347
23.0	186.54579250793904	stim	6		18	1.0	0.55	20.0	33.0			190.47031050291844	0.5999837508425117
23.0	187.14577625878155	stim	7		15	1.0	0.55	20.0	33.0			191.07029425376095	0.5074312221258879
23.0	187.64725504093803	response	7	j		1.0	0.55	20.0	33.0			191.57177303591743	
23.0	187.65320748090744	choice	7		40					1.0		191.57772547588684	0.8334311870858073
23.0	188.48202926898375	response	7	l		1.0	0.55	20.0	33.0			192.40654726396315	
23.0	188.48663866799325	certainty	7		105						3.0	192.41115666297264	2.159694471862167
24.0	190.64633313985541	stim	0		9	1.0	0.55	7.0	23.0			194.5708511348348	0.29938282794319093
24.0	190.9457159677986	stim	1		15	1.0	0.55	7.0	23.0			194.870233962778	0.5000290900934488
24.0	191.44574505789205	stim	2		18	1.0	0.55	7.0	23.0			195.37026305287145	0.5998406719882041
24.0	192.04558572988026	stim	3		45	1.0	0.55	7.0	23.0			195.97010372485965	1.5005266671068966
24.0	193.54611239698716	stim	4		9	1.0	0.55	7.0	23.0			197.47063039196655	0.29952476592734456
24.0	193.8456371629145	stim	5		15	1.0	0.55	7.0	23.0			197.7701551578939	0.499997264938429
24.0	194.34563442785293	stim	6		18	1.0	0.55	7.0	23.0			198.27015242283233	0.600678174989298
24.0	194.94631260284223	stim	7		26	1.0	0.55	7.0	23.0			198.87083059782162	0.8750629220157862
24.0	195.81505875196308	response	7	k		1.0	0.55	7.0	23.0			199.73957674694248	
24.0	195.821375524858	choice	7		50					2.0		199.7458935198374	0.7984893890097737
24.0	196.6151624219492	response	7	k		1.0	0.55	7.0	23.0			200.5396804169286	
24.0	196.6198649138678	certainty	7		105						2.0	200.54438290884718	1.8261708291247487
25.0	198.44603574299254	stim	0		9	1.0	0.55	7.0	11.0			202.37055373797193	0.2997074178420007
25.0	198.74574316083454	stim	1		15	1.0	0.55	7.0	11.0			202.67026115581393	0.5002759001217782
25.0	199.2460190609563	stim	2		18	1.0	0.55	7.0	11.0			203.1705370559357	0.5995247799437493
25.0	199.84554384090006	stim	3		45	1.0	0.55	7.0	11.0			203.77006183587946	1.4995173159986734
25.0	201.34506115689874	stim	4		9	1.0	0.55	7.0	11.0			205.26957915187813	0.3009731359779835
25.0	201.64603429287672	stim	5		15	1.0	0.55	7.0	11.0			205.57055228785612	0.5001168500166386
25.0	202.14615114289336	stim	6		18	1.0	0.55	7.0	11.0			206.07066913787276	0.5993658099323511
25.0	202.7455169528257	stim	7		37	1.0	0.55	7.0	11.0			206.6700349478051	1.2425123190041631
25.0	203.98135756980628	response	7	j		1.0	0.55	7.0	11.0			207.90587556478567	
25.0	203.98802927182987	choice	7		64					1.0		207.91254726680927	0.8984605700243264
25.0	204.88140928093344	response	7	k		1.0	0.55	7.0	11.0			208.80592727591284	
25.0	204.8864898418542	certainty	7		105						2.0	208.8110078368336	1.3595032701268792
26.0	206.24599311198108	stim	0		9	1.0	0.55	10.0	14.0			210.17051110696048	0.29935944895260036
26.0	206.54535256093368	stim	1		15	1.0	0.55	10.0	14.0			210.46987055591308	0.49998607905581594
26.0	207.0453386399895	stim	2		18	1.0	0.55	10.0	14.0			210.9698566349689	0.5998998968861997
26.0	207.6452385368757	stim	3		45	1.0	0.55	10.0	14.0			211.5697565318551	1.500661256024614
26.0	209.1458997929003	stim	4		9	1.0	0.55	10.0	14.0			213.0704177878797	0.3000705970916897
26.0	209.445970389992	stim	5		15	1.0	0.55	10.0	14.0			213.3704883849714	0.5003037508577108
26.0	209.9462741408497	stim	6		18	1.0	0.55	10.0	14.0			213.8707921358291	0.5993832829408348
26.0	210.54565742379054	stim	7		17	1.0	0.55	10.0	14.0			214.47017541876994	0.5754552150610834
26.0	211.1147506868001	response	7	k		1.0	0.55	10.0	14.0			215.0392686817795	
26.0	211.12111263885163	choice	7		46					2.0		215.04563063383102	0.962057244963944
26.0	212.07971292291768	response	7	j		1.0	0.55	10.0	14.0			216.00423091789708	
26.0	212.08316988381557	certainty	7		105						1.0	216.00768787879497	1.962415357120335
27.0	214.0455852409359	stim	0		9	1.0	0.55	7.0	14.0			217.9701032359153	0.3000322040170431
27.0	214.34561744495295	stim	1		15	1.0	0.55	7.0	14.0			218.27013543993235	0.5002311470452696
27.0	214.84584859199822	stim	2		18	1.0	0.55	7.0	14.0			218.77036658697762	0.6000478658825159
27.0	215.44589645788074	stim	3		45	1.0	0.55	7.0	14.0			219.37041445286013	1.4998595600482076
27.0	216.94575601792894	stim	4		9	1.0	0.55	7.0	14.0			220.87027401290834	0.2997684229630977
27.0	217.24552444089204	stim	5		15	1.0	0.55	7.0	14.0			221.17004243587144	0.5003597089089453
27.0	217.745884149801	stim	6		18	1.0	0.55	7.0	14.0			221.67040214478038	0.5999816791154444
27.0	218.34586582891643	stim	7		13	1.0	0.55	7.0	14.0			222.27038382389583	0.44102384406141937
27.0	218.74918812396936	response	7	k		1.0	0.55	7.0	14.0			222.67370611894876	
27.0	218.78688967297785	choice	7		36					2.0		222.71140766795725	0.7665501879528165
27.0	219.54857049882412	response	7	j		1.0	0.55	7.0	14.0			223.47308849380352	
27.0	219.55343986093067	certainty	7		105						1.0	223.47795785591006	2.291775624966249
28.0	221.84521548589692	stim	0		9	1.0	0.55	14.0	39.0			225.7697334808763	0.3008621549233794
28.0	222.1460776408203	stim	1		15	1.0	0.55	14.0	39.0			226.0705956357997	0.49961779406294227
28.0	222.64569543488324	stim	2		18	1.0	0.55	14.0	39.0			226.57021342986263	0.6001001459080726
28.0	223.2457955807913	stim	3		45	1.0	0.55	14.0	39.0			227.1703135757707	1.5003731790930033
28.0	224.7461687598843	stim	4		9	1.0	0.55	14.0	39.0			228.6706867548637	0.2996501331217587
28.0	225.04581889300607	stim	5		15	1.0	0.55	14.0	39.0			228.97033688798547	0.5001025488600135
28.0	225.54592144186608	stim	6		18	1.0	0.55	14.0	39.0			229.47043943684548	0.5999901171308011
28.0	226.1459115589969	stim	7		3	1.0	0.55	14.0	39.0			230.07042955397628	0.11069988389499485
28.0	226.25001199590042	response	7	k		1.0	0.55	14.0	39.0			230.17452999087982	
28.0	226.25661144289188	choice	7		28					2.0		230.18112943787128	0.8274100329726934
28.0	227.07992152194493	response	7	l		1.0	0.55	14.0	39.0			231.00443951692432	
28.0	227.08402147586457	certainty	7		105						3.0	231.00853947084397	2.561233059037477
29.0	229.64525453490205	stim	0		9	1.0	0.55	10.0	23.0			233.56977252988145	0.30036966991610825
29.0	229.94562420481816	stim	1		15	1.0	0.55	10.0	23.0			233.87014219979756	0.5001450690906495
29.0	230.4457692739088	stim	2		18	1.0	0.55	10.0	23.0			234.3702872688882	0.6000054369214922
29.0	231.0457747108303	stim	3		45	1.0	0.55	10.0	23.0			234.9702927058097	1.4996214660350233
29.0	232.54539617686532	stim	4		10	1.0	0.55	10.0	23.0			236.46991417184472	0.333651534980163
29.0	232.8790477118455	stim	5		14	1.0	0.55	10.0	23.0			236.80356570682488	0.466420765966177
29.0	233.34546847781166	stim	6		18	1.0	0.55	10.0	23.0			237.26998647279106	0.5999500129837543
29.0	233.94541849079542	stim	7		20	1.0	0.55	10.0	23.0			237.86993648577482	0.676135775167495
29.0	234.61505641485564	response	7	k		1.0	0.55	10.0	23.0			238.53957440983504	
29.0	234.6215542659629	choice	7		44					2.0		238.5460722609423	0.7982792218681425
29.0	235.4151955919806	response	7	j		1.0	0.55	10.0	23.0			239.33971358696	
29.0	235.41983348783106	certainty	7		105						1.0	239.34435148281045	2.0254984900821
30.0	237.44533197791316	stim	0		9	1.0	0.55	5.0	10.0			241.36984997289255	0.3004374080337584
30.0	237.74576938594691	stim	1		15	1.0	0.55	5.0	10.0			241.6702873809263	0.49956238688901067
30.0	238.24533177283593	stim	2		18	1.0	0.55	5.0	10.0			242.16984976781532	0.5993217751383781
30.0	238.8446535479743	stim	3		45	1.0	0.55	5.0	10.0			242.7691715429537	1.5008867429569364
30.0	240.34554029093124	stim	4		9	1.0	0.55	5.0	10.0			244.27005828591064	0.3002084728796035
30.0	240.64574876381084	stim	5		15	1.0	0.55	5.0	10.0			244.57026675879024	0.49991139117628336
30.0	241.14566015498713	stim	6		18	1.0	0.55	5.0	10.0			245.07017814996652	0.5996128029655665
30.0	241.7452729579527	stim	7		17	1.0	0.55	5.0	10.0			245.6697909529321	0.5744001800194383
30.0	242.31376843200997	response	7	j		1.0	0.55	5.0	10.0			246.23828642698936	
30.0	242.31967313797213	choice	7		41					1.0		246.24419113295153	0.7997965510003269
30.0	243.11482490692288	response	7	l		1.0	0.55	5.0	10.0			247.03934290190227	
30.0	243.11946968897246	certainty	7		105						3.0	247.04398768395185	2.125729372026399
31.0	245.24519906099886	stim	0		9	1.0	0.55	28.0	56.0			249.16971705597825	0.29953130381181836
31.0	245.54473036481068	stim	1		15	1.0	0.55	28.0	56.0			249.46924835979007	0.500429506180808
31.0	246.04515987099148	stim	2		18	1.0	0.55	28.0	56.0			249.96967786597088	0.600466470932588
31.0	246.64562634192407	stim	3		45	1.0	0.55	28.0	56.0			250.57014433690347	1.4993621099274606
31.0	248.14498845185153	stim	4		9	1.0	0.55	28.0	56.0			252.06950644683093	0.2997471580747515
31.0	248.44473560992628	stim	5		15	1.0	0.55	28.0	56.0			252.36925360490568	0.5001678129192442
31.0	248.94490342284553	stim	6		18	1.0	0.55	28.0	56.0			252.86942141782492	0.6006060519721359
31.0	249.54550947481766	stim	7		39	1.0	0.55	28.0	56.0			253.47002746979706	1.3087852359749377
31.0	250.84749332792126	response	7	j		1.0	0.55	28.0	56.0			254.77201132290065	
31.0	250.8542947107926	choice	7		63					1.0		254.778812705772	0.7989297062158585
31.0	251.64829426677898	response	7	j		1.0	0.55	28.0	56.0			255.57281226175837	
31.0	251.65322441700846	certainty	7		105						1.0	255.57774241198786	1.3922880599275231
32.0	253.04551247693598	stim	0		10	1.0	0.55	10.0	33.0			256.9700304719154	0.3333474409300834
32.0	253.37885991786607	stim	1		14	1.0	0.55	10.0	33.0			257.30337791284546	0.46576542197726667
32.0	253.84462533984333	stim	2		18	1.0	0.55	10.0	33.0			257.76914333482273	0.6008759350515902
32.0	254.44550127489492	stim	3		45	1.0	0.55	10.0	33.0			258.3700192698743	1.499676279956475
32.0	255.9451775548514	stim	4		9	1.0	0.55	10.0	33.0			259.8696955498308	0.30043024313636124
32.0	256.24560779798776	stim	5		15	1.0	0.55	10.0	33.0			260.17012579296716	0.49913482880219817
32.0	256.74474262678996	stim	6		19	1.0	0.55	10.0	33.0			260.66926062176935	0.6340391722042114
32.0	257.37878179899417	stim	7		5	1.0	0.55	10.0	33.0			261.30329979397357	0.17418590490706265
32.0	257.5471466209274	response	7	k		1.0	0.55	10.0	33.0			261.4716646159068	
32.0	257.55296770390123	choice	7		29					2.0		261.4774856988806	0.7993624270893633
32.0	258.3477087628562	response	7	l		1.0	0.55	10.0	33.0			262.2722267578356	
32.0	258.3523301309906	certainty	7		104						3.0	262.27684812597	2.492451098980382
2.0	260.844781229971	stim	0		21438							264.7692992249504	34.23285297281109
2.0	295.04507908481173	response	0	lcommand								298.96959707979113	
2.0	295.07763420278206	stim	0		2431							299.00215219776146	4.972488642204553
33.0	300.0501228449866	stim	0		146	1.0	0.55	14.0	23.0			303.974640839966	0.3000640058889985
33.0	300.3501868508756	stim	1		406	1.0	0.55	14.0	23.0			304.274704845855	0.5037740389816463
33.0	300.85396088985726	stim	2		106	1.0	0.55	14.0	23.0			304.77847888483666	0.5968298809602857
33.0	301.45079077081755	stim	3		97	1.0	0.55	14.0	23.0			305.37530876579694	1.5620027831755579
33.0	303.0127935539931	stim	4		8	1.0	0.55	14.0	23.0			306.9373115489725	0.3158054919913411
33.0	303.32859904598445	stim	5		15	1.0	0.55	14.0	23.0			307.25311704096384	0.4830474688205868
33.0	303.81164651480503	stim	6		18	1.0	0.55	14.0	23.0			307.73616450978443	0.5997843451332301
33.0	304.41143085993826	stim	7		53	1.0	0.55	14.0	23.0			308.33594885491766	1.7770392170641571
33.0	306.18143958295695	response	7	j		1.0	0.55	14.0	23.0			310.10595757793635	
33.0	306.1884700770024	choice	7		78					1.0		310.1129880719818	0.830140046775341
33.0	307.0139927228447	response	7	l		1.0	0.55	14.0	23.0			310.9385107178241	
33.0	307.01861012377776	certainty	7		105						3.0	310.94312811875716	0.892624864121899
34.0	307.91123498789966	stim	0		9	1.0	0.55	28.0	79.0			311.83575298287906	0.30045733507722616
34.0	308.2116923229769	stim	1		15	1.0	0.55	28.0	79.0			312.1362103179563	0.499942964874208
34.0	308.7116352878511	stim	2		18	1.0	0.55	28.0	79.0			312.6361532828305	0.5991142890416086
34.0	309.3107495768927	stim	3		45	1.0	0.55	28.0	79.0			313.2352675718721	1.5007073159795254
34.0	310.81145689287223	stim	4		9	1.0	0.55	28.0	79.0			314.7359748878516	0.29939984111115336
34.0	311.1108567339834	stim	5		15	1.0	0.55	28.0	79.0			315.0353747289628	0.5001331509556621
34.0	311.61098988493904	stim	6		17	1.0	0.55	28.0	79.0			315.53550787991844	0.5667587658390403
34.0	312.1777486507781	stim	7		13	1.0	0.55	28.0	79.0			316.1022666457575	0.44317056401632726
34.0	312.61417115386575	response	7	k		1.0	0.55	28.0	79.0			316.53868914884515	
34.0	312.6209192147944	choice	7		39					2.0		316.5454372097738	0.8648634981364012
34.0	313.48086364078335	response	7	l		1.0	0.55	28.0	79.0			317.40538163576275	
34.0	313.4857827129308	certainty	7		106						3.0	317.4103007079102	2.2254490598570555
35.0	315.71123177278787	stim	0		9	1.0	0.55	5.0	11.0			319.63574976776727	0.2996532612014562
35.0	316.0108850339893	stim	1		15	1.0	0.55	5.0	11.0			319.9354030289687	0.5002134898677468
35.0	316.5110985238571	stim	2		18	1.0	0.55	5.0	11.0			320.43561651883647	0.6002557971514761
35.0	317.11135432100855	stim	3		45	1.0	0.55	5.0	11.0			321.03587231598794	1.4997605769895017
35.0	318.61111489799805	stim	4		9	1.0	0.55	5.0	11.0			322.53563289297745	0.2995833239983767
35.0	318.9106982219964	stim	5		15	1.0	0.55	5.0	11.0			322.8352162169758	0.5001902529038489
35.0	319.4108884749003	stim	6		18	1.0	0.55	5.0	11.0			323.3354064698797	0.6003830190747976
35.0	320.0112714939751	stim	7		21	1.0	0.55	5.0	11.0			323.93578948895447	0.7088472819887102
35.0	320.7137729988899	response	7	j		1.0	0.55	5.0	11.0			324.6382909938693	
35.0	320.7201187759638	choice	7		42					1.0		324.6446367709432	0.6967096040025353
35.0	321.38307340978645	response	7	j		1.0	0.55	5.0	11.0			325.30759140476584	
35.0	321.4168283799663	certainty	7		105						1.0	325.3413463749457	2.0942510350141674
36.0	323.5110794149805	stim	0		9	1.0	0.55	28.0	33.0			327.4355974099599	0.30039695487357676
36.0	323.81147636985406	stim	1		15	1.0	0.55	28.0	33.0			327.73599436483346	0.49910878599621356
36.0	324.3105851558503	stim	2		18	1.0	0.55	28.0	33.0			328.2351031508297	0.6012418549507856
36.0	324.91182701080106	stim	3		45	1.0	0.55	28.0	33.0			328.83634500578046	1.4995105019770563
36.0	326.4113375127781	stim	4		9	1.0	0.55	28.0	33.0			330.3358555077575	0.29954061517491937
36.0	326.71087812795304	stim	5		15	1.0	0.55	28.0	33.0			330.63539612293243	0.5005652520339936
36.0	327.21144337998703	stim	6		18	1.0	0.55	28.0	33.0			331.1359613749664	0.5993582799565047
36.0	327.81080165994354	stim	7		5	1.0	0.55	28.0	33.0			331.73531965492293	0.17800725088454783
36.0	327.9821399007924	response	7	j		1.0	0.55	28.0	33.0			331.9066578957718	
36.0	327.9888089108281	choice	7		30					1.0		331.9133269058075	0.8302153660915792
36.0	328.8141424288042	response	7	l		1.0	0.55	28.0	33.0			332.7386604237836	
36.0	328.81902427691966	certainty	7		105						3.0	332.74354227189906	2.492183507885784
37.0	331.31120778480545	stim	0		9	1.0	0.55	10.0	20.0			335.23572577978484	0.2997010110411793
37.0	331.6109087958466	stim	1		15	1.0	0.55	10.0	20.0			335.535426790826	0.4993381721433252
37.0	332.11024696798995	stim	2		18	1.0	0.55	10.0	20.0			336.03476496296935	0.6004542259033769
37.0	332.7107011938933	stim	3		45	1.0	0.55	10.0	20.0			336.6352191888727	1.5009437859989703
37.0	334.2116449798923	stim	4		9	1.0	0.55	10.0	20.0			338.1361629748717	0.2994530429132283
37.0	334.5110980228055	stim	5		15	1.0	0.55	10.0	20.0			338.4356160177849	0.4995850180275738
37.0	335.0106830408331	stim	6		18	1.0	0.55	10.0	20.0			338.9352010358125	0.600442314054817
37.0	335.6111253548879	stim	7		32	1.0	0.55	10.0	20.0			339.5356433498673	1.0771334751043469
37.0	336.6815629408229	response	7	k		1.0	0.55	10.0	20.0			340.6060809358023	
37.0	336.68825882999226	choice	7		59					2.0		340.61277682497166	0.8957132678478956
37.0	337.54946025297977	response	7	l		1.0	0.55	10.0	20.0			341.47397824795917	
37.0	337.58397209784016	certainty	7		105						3.0	341.50849009281956	1.5266669110860676
38.0	339.1106390089262	stim	0		9	1.0	0.55	5.0	16.0			343.0351570039056	0.3006695818621665
38.0	339.4113085907884	stim	1		15	1.0	0.55	5.0	16.0			343.3358265857678	0.49917515413835645
38.0	339.91048374492675	stim	2		18	1.0	0.55	5.0	16.0			343.83500173990615	0.6003863678779453
38.0	340.5108701128047	stim	3		45	1.0	0.55	5.0	16.0			344.4353881077841	1.4997949860990047
38.0	342.0106650989037	stim	4		9	1.0	0.55	5.0	16.0			345.9351830938831	0.30032388493418694
38.0	342.3109889838379	stim	5		15	1.0	0.55	5.0	16.0			346.2355069788173	0.499752942007035
38.0	342.8107419258449	stim	6		18	1.0	0.55	5.0	16.0			346.7352599208243	0.600011041155085
38.0	343.410752967	stim	7		1	1.0	0.55	5.0	16.0			347.3352709619794	0.05867620883509517
38.0	343.4626060319133	response	7	k		1.0	0.55	5.0	16.0			347.3871240268927	
38.0	343.4694291758351	choice	7		20					2.0		347.3939471708145	0.6159268100745976
38.0	344.0806171838194	response	7	l		1.0	0.55	5.0	16.0			348.0051351787988	
38.0	344.0853559859097	certainty	7		105						3.0	348.0098739808891	2.825743252877146
39.0	346.91109923878685	stim	0		9	1.0	0.55	28.0	47.0			350.83561723376624	0.29911867808550596
39.0	347.21021791687235	stim	1		15	1.0	0.55	28.0	47.0			351.13473591185175	0.500765449134633
39.0	347.710983366007	stim	2		18	1.0	0.55	28.0	47.0			351.6355013609864	0.6000273358076811
39.0	348.31101070181467	stim	3		45	1.0	0.55	28.0	47.0			352.23552869679406	1.5002758111804724
39.0	349.81128651299514	stim	4		9	1.0	0.55	28.0	47.0			353.73580450797454	0.2994333279784769
39.0	350.1107198409736	stim	5		15	1.0	0.55	28.0	47.0			354.035237835953	0.5005263818893582
39.0	350.611246222863	stim	6		18	1.0	0.55	28.0	47.0			354.53576421784237	0.6000019400380552
39.0	351.21124816290103	stim	7		17	1.0	0.55	28.0	47.0			355.1357661578804	0.5759486940223724
39.0	351.7807367129717	response	7	j		1.0	0.55	28.0	47.0			355.7052547079511	
39.0	351.7871968569234	choice	7		39					1.0		355.7117148519028	0.7300022069830447
39.0	352.4829732829239	response	7	j		1.0	0.55	28.0	47.0			356.4074912779033	
39.0	352.51719906390645	certainty	7		105						1.0	356.44171705888584	2.1939656019676477
40.0	354.7111646658741	stim	0		9	1.0	0.55	10.0	11.0			358.6356826608535	0.2999316470231861
40.0	355.0110963128973	stim	1		15	1.0	0.55	10.0	11.0			358.9356143078767	0.5001432909630239
40.0	355.5112396038603	stim	2		18	1.0	0.55	10.0	11.0			359.4357575988397	0.6000963661354035
40.0	356.1113359699957	stim	3		45	1.0	0.55	10.0	11.0			360.0358539649751	1.499775927979499
40.0	357.6111118979752	stim	4		9	1.0	0.55	10.0	11.0			361.5356298929546	0.30009838100522757
40.0	357.91121027898043	stim	5		15	1.0	0.55	10.0	11.0			361.83572827395983	0.4999684488866478
40.0	358.4111787278671	stim	6		18	1.0	0.55	10.0	11.0			362.3356967228465	0.6000116309151053
40.0	359.0111903587822	stim	7		20	1.0	0.55	10.0	11.0			362.9357083537616	0.6742436771746725
40.0	359.67938331491314	response	7	j		1.0	0.55	10.0	11.0			363.60390130989254	
40.0	359.68543403595686	choice	7		45					1.0		363.60995203093626	0.8325144159607589
40.0	360.5129465297796	response	7	k		1.0	0.55	10.0	11.0			364.437464524759	
40.0	360.5179484519176	certainty	7		105						2.0	364.442466446897	1.9929062149021775
41.0	362.5108546668198	stim	0		9	1.0	0.55	10.0	40.0			366.4353726617992	0.2994263090658933
41.0	362.8102809758857	stim	1		15	1.0	0.55	10.0	40.0			366.7347989708651	0.5000047830399126
41.0	363.3102857589256	stim	2		18	1.0	0.55	10.0	40.0			367.234803753905	0.6010538069531322
41.0	363.91133956587873	stim	3		45	1.0	0.55	10.0	40.0			367.83585756085813	1.4995525151025504
41.0	365.4108920809813	stim	4		9	1.0	0.55	10.0	40.0			369.3354100759607	0.3002792939078063
41.0	365.7111713748891	stim	5		15	1.0	0.55	10.0	40.0			369.6356893698685	0.49966526008211076
41.0	366.2108366349712	stim	6		18	1.0	0.55	10.0	40.0			370.1353546299506	0.6003690278157592
41.0	366.81120566278696	stim	7		17	1.0	0.55	10.0	40.0			370.73572365776636	0.5764062150847167
41.0	367.3806265068706	response	7	k		1.0	0.55	10.0	40.0			371.30514450185	
41.0	367.3876118778717	choice	7		41					2.0		371.3121298728511	0.7978010270744562
41.0	368.180495869834	response	7	l		1.0	0.55	10.0	40.0			372.1050138648134	
41.0	368.18541290494613	certainty	7		105						3.0	372.10993089992553	2.125040537910536
42.0	370.31045344285667	stim	0		9	1.0	0.55	7.0	16.0			374.23497143783607	0.3004673160612583
42.0	370.6109207589179	stim	1		15	1.0	0.55	7.0	16.0			374.5354387538973	0.5004279050044715
42.0	371.1113486639224	stim	2		18	1.0	0.55	7.0	16.0			375.0358666589018	0.5997278450522572
42.0	371.71107650897466	stim	3		45	1.0	0.55	7.0	16.0			375.63559450395405	1.4999498918186873
42.0	373.21102640079334	stim	4		9	1.0	0.55	7.0	16.0			377.13554439577274	0.3000337940175086
42.0	373.51106019481085	stim	5		15	1.0	0.55	7.0	16.0			377.43557818979025	0.500012454111129
42.0	374.011072648922	stim	6		18	1.0	0.55	7.0	16.0			377.9355906439014	0.5997186319436878
42.0	374.61079128086567	stim	7		4	1.0	0.55	7.0	16.0			378.53530927584507	0.14274494699202478
42.0	374.7470930069685	response	7	k		1.0	0.55	7.0	16.0			378.6716110019479	
42.0	374.7535362278577	choice	7		24					2.0		378.6780542228371	0.6646162080578506
42.0	375.4134396750014	response	7	j		1.0	0.55	7.0	16.0			379.3379576699808	
42.0	375.41815243591554	certainty	7		105						1.0	379.34267043089494	2.6926009808667004
43.0	378.11075341678225	stim	0		9	1.0	0.55	7.0	28.0			382.03527141176164	0.3002725401893258
43.0	378.41102595697157	stim	1		15	1.0	0.55	7.0	28.0			382.33554395195097	0.5000090938992798
43.0	378.91103505087085	stim	2		18	1.0	0.55	7.0	28.0			382.83555304585025	0.5996275199577212
43.0	379.5106625708286	stim	3		45	1.0	0.55	7.0	28.0			383.43518056580797	1.5003318490926176
43.0	381.0109944199212	stim	4		9	1.0	0.55	7.0	28.0			384.9355124149006	0.29913852689787745
43.0	381.31013294681907	stim	5		15	1.0	0.55	7.0	28.0			385.23465094179846	0.4995132910553366
43.0	381.8096462378744	stim	6		18	1.0	0.55	7.0	28.0			385.7341642328538	0.601529655046761
43.0	382.41117589292116	stim	7		17	1.0	0.55	7.0	28.0			386.33569388790056	0.5759079440031201
43.0	382.980689833872	response	7	k		1.0	0.55	7.0	28.0			386.9052078288514	
43.0	382.9870838369243	choice	7		41					2.0		386.9116018319037	0.796347094932571
43.0	383.77908783894964	response	7	l		1.0	0.55	7.0	28.0			387.70360583392903	
43.0	383.78343093185686	certainty	7		105						3.0	387.70794892683625	2.1271466340404004
44.0	385.91057756589726	stim	0		9	1.0	0.55	5.0	20.0			389.83509556087665	0.3003693800419569
44.0	386.2109469459392	stim	1		15	1.0	0.55	5.0	20.0			390.1354649409186	0.49933724384754896
44.0	386.71028418978676	stim	2		18	1.0	0.55	5.0	20.0			390.63480218476616	0.5997262871824205
44.0	387.3100104769692	stim	3		45	1.0	0.55	5.0	20.0			391.2345284719486	1.5007237219251692
44.0	388.81073419889435	stim	4		9	1.0	0.55	5.0	20.0			392.73525219387375	0.29988455795682967
44.0	389.1106187568512	stim	5		15	1.0	0.55	5.0	20.0			393.0351367518306	0.4998417180031538
44.0	389.61046047485434	stim	6		18	1.0	0.55	5.0	20.0			393.53497846983373	0.6004323940724134
44.0	390.21089286892675	stim	7		14	1.0	0.55	5.0	20.0			394.13541086390615	0.47392716188915074
44.0	390.67875767778605	response	7	k		1.0	0.55	5.0	20.0			394.60327567276545	
44.0	390.6848200308159	choice	7		34					2.0		394.6093380257953	0.6668292251415551
44.0	391.3467382688541	response	7	l		1.0	0.55	5.0	20.0			395.2712562638335	
44.0	391.35164925595745	certainty	7		105						3.0	395.27616725093685	2.359200607985258
45.0	393.7108498639427	stim	0		9	1.0	0.55	20.0	47.0			397.6353678589221	0.2994484039954841
45.0	394.0102982679382	stim	1		15	1.0	0.55	20.0	47.0			397.9348162629176	0.5001521809026599
45.0	394.51045044884086	stim	2		18	1.0	0.55	20.0	47.0			398.43496844382025	0.6003404550720006
45.0	395.11079090391286	stim	3		45	1.0	0.55	20.0	47.0			399.03530889889225	1.4998090779408813
45.0	396.61059998185374	stim	4		9	1.0	0.55	20.0	47.0			400.53511797683313	0.30024427315220237
45.0	396.91084425500594	stim	5		15	1.0	0.55	20.0	47.0			400.83536224998534	0.49995981086976826
45.0	397.4108040658757	stim	6		18	1.0	0.55	20.0	47.0			401.3353220608551	0.5999395630788058
45.0	398.0107436289545	stim	7		8	1.0	0.55	20.0	47.0			401.9352616239339	0.27647072984836996
45.0	398.28064703196287	response	7	k		1.0	0.55	20.0	47.0			402.20516502694227	
45.0	398.2872143588029	choice	7		30					2.0		402.2117323537823	0.7289438901934773
45.0	398.9823982617818	response	7	l		1.0	0.55	20.0	47.0			402.9069162567612	
45.0	399.01615824899636	certainty	7		105						3.0	402.94067624397576	2.4944782729726285
46.0	401.510636521969	stim	0		9	1.0	0.55	20.0	28.0			405.4351545169484	0.2999689138960093
46.0	401.810605435865	stim	1		15	1.0	0.55	20.0	28.0			405.7351234308444	0.49938520998694
46.0	402.30999064585194	stim	2		18	1.0	0.55	20.0	28.0			406.23450864083134	0.6005479509476572
46.0	402.9105385967996	stim	3		45	1.0	0.55	20.0	28.0			406.835056591779	1.4998537511564791
46.0	404.4103923479561	stim	4		9	1.0	0.55	20.0	28.0			408.3349103429355	0.3004006389528513
46.0	404.7107929869089	stim	5		15	1.0	0.55	20.0	28.0			408.6353109818883	0.5000308530870825
46.0	405.210823839996	stim	6		18	1.0	0.55	20.0	28.0			409.1353418349754	0.5991530609317124
46.0	405.8099769009277	stim	7		16	1.0	0.55	20.0	28.0			409.7344948959071	0.5425233829300851
46.0	406.3461131909862	response	7	j		1.0	0.55	20.0	28.0			410.2706311859656	
46.0	406.3525002838578	choice	7		53					1.0		410.2770182788372	1.232537355972454
46.0	407.58022473892197	response	7	k		1.0	0.55	20.0	28.0			411.50474273390137	
46.0	407.58503763983026	certainty	7		105						2.0	411.50955563480966	1.724932115059346
47.0	409.3099697548896	stim	0		9	1.0	0.55	10.0	28.0			413.234487749869	0.29973443411290646
47.0	409.6097041890025	stim	1		15	1.0	0.55	10.0	28.0			413.5342221839819	0.5007915189489722
47.0	410.1104957079515	stim	2		18	1.0	0.55	10.0	28.0			414.0350137029309	0.6001420388929546
47.0	410.71063774684444	stim	3		45	1.0	0.55	10.0	28.0			414.63515574182384	1.5000794550869614
47.0	412.2107172019314	stim	4		9	1.0	0.55	10.0	28.0			416.1352351969108	0.2998976979870349
47.0	412.51061489991844	stim	5		15	1.0	0.55	10.0	28.0			416.43513289489783	0.5001348499208689
47.0	413.0107497498393	stim	6		18	1.0	0.55	10.0	28.0			416.9352677448187	0.6000213560182601
47.0	413.61077110585757	stim	7		1	1.0	0.55	10.0	28.0			417.53528910083696	0.04201472504064441
47.0	413.64652767498046	response	7	k		1.0	0.55	10.0	28.0			417.57104566995986	
47.0	413.6527858308982	choice	7		25					2.0		417.5773038258776	0.7989783058874309
47.0	414.4468066939153	response	7	j		1.0	0.55	10.0	28.0			418.3713246888947	
47.0	414.45176413678564	certainty	7		105						1.0	418.37628213176504	2.658617831999436
48.0	417.1103819687851	stim	0		9	1.0	0.55	7.0	9.0			421.0348999637645	0.30030732904560864
48.0	417.4106892978307	stim	1		15	1.0	0.55	7.0	9.0			421.3352072928101	0.499607068952173
48.0	417.91029636678286	stim	2		18	1.0	0.55	7.0	9.0			421.83481436176226	0.5996762330178171
48.0	418.5099725998007	stim	3		45	1.0	0.55	7.0	9.0			422.4344905947801	1.5006153220310807
48.0	420.01058792183176	stim	4		9	1.0	0.55	7.0	9.0			423.93510591681115	0.2993538270238787
48.0	420.30994174885564	stim	5		15	1.0	0.55	7.0	9.0			424.23445974383503	0.49997526593506336
48.0	420.8099170147907	stim	6		18	1.0	0.55	7.0	9.0			424.7344350097701	0.6002895410638303
48.0	421.41020655585453	stim	7		17	1.0	0.55	7.0	9.0			425.3347245508339	0.5768058199901134
48.0	421.9802592219785	response	7	k		1.0	0.55	7.0	9.0			425.9047772169579	
48.0	421.98701237584464	choice	7		39					2.0		425.91153037082404	0.7311061429791152
48.0	422.71326969983056	response	7	k		1.0	0.55	7.0	9.0			426.63778769480996	
48.0	422.71811851882376	certainty	7		105						2.0	426.64263651380315	2.1924931900575757
2.0	424.91061170888133	stim	0		150							428.83512970386073	4.999909834936261
49.0	429.9105215438176	stim	0		9	0.55	1.0	14.0	10.0			433.835039538797	0.3000806560739875
49.0	430.2106021998916	stim	1		15	0.55	1.0	14.0	10.0			434.135120194871	0.49994544591754675
49.0	430.71054764580913	stim	2		18	0.55	1.0	14.0	10.0			434.6350656407885	0.599086657166481
49.0	431.3096343029756	stim	3		45	0.55	1.0	14.0	10.0			435.234152297955	1.5008490728214383
49.0	432.81048337579705	stim	4		9	0.55	1.0	14.0	10.0			436.73500137077644	0.2999347092118114
49.0	433.11041808500886	stim	5		15	0.55	1.0	14.0	10.0			437.03493607998826	0.5001643039286137
49.0	433.6105823889375	stim	6		18	0.55	1.0	14.0	10.0			437.53510038391687	0.5999756730161607
49.0	434.21055806195363	stim	7		16	0.55	1.0	14.0	10.0			438.13507605693303	0.5415895879268646
49.0	434.74597565596923	response	7	k		0.55	1.0	14.0	10.0			438.67049365094863	
49.0	434.7521476498805	choice	7		43					2.0		438.6766656448599	0.8976725509855896
49.0	435.6148898678366	response	7	j		0.55	1.0	14.0	10.0			439.539407862816	
49.0	435.6498202008661	certainty	7		105						1.0	439.5743381958455	2.060693650972098
50.0	437.7105138518382	stim	0		9	0.55	1.0	23.0	10.0			441.6350318468176	0.30001350794918835
50.0	438.0105273597874	stim	1		15	0.55	1.0	23.0	10.0			441.93504535476677	0.4997145461384207
50.0	438.5102419059258	stim	2		18	0.55	1.0	23.0	10.0			442.4347599009052	0.6001725080423057
50.0	439.1104144139681	stim	3		45	0.55	1.0	23.0	10.0			443.0349324089475	1.499899883987382
50.0	440.6103142979555	stim	4		9	0.55	1.0	23.0	10.0			444.5348322929349	0.3001368618570268
50.0	440.9104511598125	stim	5		15	0.55	1.0	23.0	10.0			444.8349691547919	0.49922423902899027
50.0	441.4096753988415	stim	6		18	0.55	1.0	23.0	10.0			445.3341933938209	0.6007862330880016
50.0	442.0104616319295	stim	7		12	0.55	1.0	23.0	10.0			445.9349796269089	0.40972254192456603
50.0	442.41331716184504	response	7	j		0.55	1.0	23.0	10.0			446.33783515682444	
50.0	442.42018417385407	choice	7		44					1.0		446.34470216883346	1.06436852295883
50.0	443.47962176892906	response	7	l		0.55	1.0	23.0	10.0			447.40413976390846	
50.0	443.4845526968129	certainty	7		105						3.0	447.4090706917923	2.0259474851191044
51.0	445.510500181932	stim	0		9	0.55	1.0	39.0	28.0			449.4350181769114	0.2999381348490715
51.0	445.8104383167811	stim	1		15	0.55	1.0	39.0	28.0			449.73495631176047	0.4990455321967602
51.0	446.30948384897783	stim	2		18	0.55	1.0	39.0	28.0			450.23400184395723	0.6004169730003923
51.0	446.9099008219782	stim	3		45	0.55	1.0	39.0	28.0			450.8344188169576	1.5005675668362528
51.0	448.4104683888145	stim	4		9	0.55	1.0	39.0	28.0			452.3349863837939	0.2999635781161487
51.0	448.7104319669306	stim	5		15	0.55	1.0	39.0	28.0			452.63494996191	0.4999969720374793
51.0	449.2104289389681	stim	6		18	0.55	1.0	39.0	28.0			453.1349469339475	0.6000652478542179
51.0	449.8104941868223	stim	7		23	0.55	1.0	39.0	28.0			453.7350121818017	0.7739961720071733
51.0	450.5784446578473	response	7	j		0.55	1.0	39.0	28.0			454.5029626528267	
51.0	450.5844903588295	choice	7		55					1.0		454.5090083538089	1.064263191074133
51.0	451.64455227786675	response	7	j		0.55	1.0	39.0	28.0			455.56907027284615	
51.0	451.64875354990363	certainty	7		105						1.0	455.573271544883	1.6609965979587287
52.0	453.30975014786236	stim	0		9	0.55	1.0	19.0	14.0			457.23426814284176	0.30035624699667096
52.0	453.61010639485903	stim	1		15	0.55	1.0	19.0	14.0			457.5346243898384	0.5001041069626808
52.0	454.1102105018217	stim	2		18	0.55	1.0	19.0	14.0			458.0347284968011	0.5996960650663823
52.0	454.7099065668881	stim	3		45	0.55	1.0	19.0	14.0			458.6344245618675	1.5000786778982729
52.0	456.20998524478637	stim	4		9	0.55	1.0	19.0	14.0			460.13450323976576	0.3004571641795337
52.0	456.5104424089659	stim	5		15	0.55	1.0	19.0	14.0			460.4349604039453	0.4996854739729315
52.0	457.01012788293883	stim	6		18	0.55	1.0	19.0	14.0			460.93464587791823	0.6002406098414212
52.0	457.61036849278025	stim	7		18	0.55	1.0	19.0	14.0			461.53488648775965	0.6093363480176777
52.0	458.21309422980994	response	7	k		0.55	1.0	19.0	14.0			462.13761222478934	
52.0	458.21970484079793	choice	7		41					2.0		462.1442228357773	0.7632864671759307
52.0	458.94867178983986	response	7	l		0.55	1.0	19.0	14.0			462.87318978481926	
52.0	458.98299130797386	certainty	7		105						3.0	462.90750930295326	2.1270240708254278
53.0	461.1100153787993	stim	0		9	0.55	1.0	16.0	14.0			465.0345333737787	0.29998977202922106
53.0	461.4100051508285	stim	1		15	0.55	1.0	16.0	14.0			465.3345231458079	0.49936966807581484
53.0	461.9093748189043	stim	2		18	0.55	1.0	16.0	14.0			465.8338928138837	0.6009579200763255
53.0	462.51033273898065	stim	3		45	0.55	1.0	16.0	14.0			466.43485073396005	1.4996664789505303
53.0	464.0099992179312	stim	4		9	0.55	1.0	16.0	14.0			467.9345172129106	0.29955419688485563
53.0	464.30955341481604	stim	5		15	0.55	1.0	16.0	14.0			468.23407140979543	0.49994942103512585
53.0	464.80950283585116	stim	6		18	0.55	1.0	16.0	14.0			468.73402083083056	0.600763016147539
53.0	465.4102658519987	stim	7		19	0.55	1.0	16.0	14.0			469.3347838469781	0.6411159269046038
53.0	466.0127014007885	response	7	k		0.55	1.0	16.0	14.0			469.9372193957679	
53.0	466.0513817789033	choice	7		39					2.0		469.9758997738827	0.6676302489358932
53.0	466.714010435855	response	7	l		0.55	1.0	16.0	14.0			470.6385284308344	
53.0	466.7190120278392	certainty	7		105						3.0	470.6435300228186	2.191277662059292
54.0	468.9102896898985	stim	0		9	0.55	1.0	33.0	14.0			472.8348076848779	0.29984128195792437
54.0	469.2101309718564	stim	1		15	0.55	1.0	33.0	14.0			473.1346489668358	0.5000349939800799
54.0	469.7101659658365	stim	2		18	0.55	1.0	33.0	14.0			473.6346839608159	0.5991092950571328
54.0	470.3092752608936	stim	3		45	0.55	1.0	33.0	14.0			474.233793255873	1.5008926501031965
54.0	471.8101679109968	stim	4		9	0.55	1.0	33.0	14.0			475.7346859059762	0.2999187959358096
54.0	472.11008670693263	stim	5		15	0.55	1.0	33.0	14.0			476.03460470191203	0.49960841704159975
54.0	472.60969512397423	stim	6		18	0.55	1.0	33.0	14.0			476.53421311895363	0.6004468228202313
54.0	473.21014194679447	stim	7		13	0.55	1.0	33.0	14.0			477.13465994177386	0.44163616211153567
54.0	473.6453187498264	response	7	j		0.55	1.0	33.0	14.0			477.5698367448058	
54.0	473.651778108906	choice	7		36					1.0		477.5762961038854	0.7655547950416803
54.0	474.41244608187117	response	7	j		0.55	1.0	33.0	14.0			478.33696407685056	
54.0	474.4173329039477	certainty	7		105						1.0	478.3418508989271	2.2928011829499155
55.0	476.7101340868976	stim	0		9	0.55	1.0	23.0	14.0			480.634652081877	0.29987549502402544
55.0	477.0100095819216	stim	1		15	0.55	1.0	23.0	14.0			480.934527576901	0.5001354820560664
55.0	477.5101450639777	stim	2		18	0.55	1.0	23.0	14.0			481.4346630589571	0.600059260847047
55.0	478.11020432482474	stim	3		45	0.55	1.0	23.0	14.0			482.03472231980413	1.4995155211072415
55.0	479.609719845932	stim	4		9	0.55	1.0	23.0	14.0			483.5342378409114	0.29987068893387914
55.0	479.90959053486586	stim	5		15	0.55	1.0	23.0	14.0			483.83410852984525	0.5004121060483158
55.0	480.4100026409142	stim	6		18	0.55	1.0	23.0	14.0			484.33452063589357	0.5995702710933983
55.0	481.00957291200757	stim	7		6	0.55	1.0	23.0	14.0			484.93409090698697	0.2102618918288499
55.0	481.21291847294196	response	7	k		0.55	1.0	23.0	14.0			485.13743646792136	
55.0	481.2198348038364	choice	7		28					2.0		485.1443527988158	0.7309413910843432
55.0	481.9460442659911	response	7	l		0.55	1.0	23.0	14.0			485.8705622609705	
55.0	481.95077619492076	certainty	7		105						3.0	485.87529418990016	2.5592618379741907
56.0	484.51003803289495	stim	0		9	0.55	1.0	28.0	20.0			488.43455602787435	0.3000601879321039
56.0	484.81009822082706	stim	1		15	0.55	1.0	28.0	20.0			488.73461621580645	0.4991296660155058
56.0	485.30922788684256	stim	2		18	0.55	1.0	28.0	20.0			489.23374588182196	0.6009255740791559
56.0	485.9101534609217	stim	3		45	0.55	1.0	28.0	20.0			489.8346714559011	1.4998744509648532
56.0	487.4100279118866	stim	4		9	0.55	1.0	28.0	20.0			491.33454590686597	0.30010928004048765
56.0	487.71013719192706	stim	5		15	0.55	1.0	28.0	20.0			491.63465518690646	0.4999439809471369
56.0	488.2100811728742	stim	6		18	0.55	1.0	28.0	20.0			492.1345991678536	0.5996875069104135
56.0	488.8097686797846	stim	7		27	0.55	1.0	28.0	20.0			492.734286674764	0.9097813861444592
56.0	489.7129474559333	response	7	k		0.55	1.0	28.0	20.0			493.6374654509127	
56.0	489.71955006592907	choice	7		47					2.0		493.64406806090847	0.6655313319060951
56.0	490.38004729081877	response	7	l		0.55	1.0	28.0	20.0			494.30456528579816	
56.0	490.38508139783517	certainty	7		105						3.0	494.30959939281456	1.9241959201171994
57.0	492.30927731795236	stim	0		9	0.55	1.0	40.0	20.0			496.23379531293176	0.29985513305291533
57.0	492.6091324510053	stim	1		15	0.55	1.0	40.0	20.0			496.5336504459847	0.5008727069944143
57.0	493.1100051579997	stim	2		18	0.55	1.0	40.0	20.0			497.0345231529791	0.6000891448929906
57.0	493.7100943028927	stim	3		45	0.55	1.0	40.0	20.0			497.6346122978721	1.4999088901095092
57.0	495.2100031930022	stim	4		9	0.55	1.0	40.0	20.0			499.1345211879816	0.30004141200333834
57.0	495.51004460500553	stim	5		15	0.55	1.0	40.0	20.0			499.43456259998493	0.4999694279395044
57.0	496.01001403294504	stim	6		18	0.55	1.0	40.0	20.0			499.93453202792443	0.6000779198948294
57.0	496.61009195283987	stim	7		28	0.55	1.0	40.0	20.0			500.53460994781926	0.9427610591519624
57.0	497.5462082438171	response	7	k		0.55	1.0	40.0	20.0			501.4707262387965	
57.0	497.55285301199183	choice	7		50					2.0		501.4773710069712	0.7315522318240255
57.0	498.2795783029869	response	7	k		0.55	1.0	40.0	20.0			502.2040962979663	
57.0	498.28440524381585	certainty	7		105						2.0	502.20892323879525	1.8271752030123025
58.0	500.11158044682816	stim	0		9	0.55	1.0	40.0	10.0			504.03609844180755	0.29838737309910357
58.0	500.40996781992726	stim	1		15	0.55	1.0	40.0	10.0			504.33448581490666	0.5000020428560674
58.0	500.9099698627833	stim	2		18	0.55	1.0	40.0	10.0			504.8344878577627	0.5996096851304173
58.0	501.50957954791375	stim	3		45	0.55	1.0	40.0	10.0			505.43409754289314	1.5004440979100764
58.0	503.0100236458238	stim	4		9	0.55	1.0	40.0	10.0			506.9345416408032	0.2992319711484015
58.0	503.3092556169722	stim	5		15	0.55	1.0	40.0	10.0			507.2337736119516	0.5007224099244922
58.0	503.8099780268967	stim	6		18	0.55	1.0	40.0	10.0			507.7344960218761	0.5997455269098282
58.0	504.40972355380654	stim	7		12	0.55	1.0	40.0	10.0			508.33424154878594	0.40916935820132494
58.0	504.81241679377854	response	7	j		0.55	1.0	40.0	10.0			508.73693478875794	
58.0	504.81889291200787	choice	7		33					1.0		508.74341090698726	0.6988300927914679
58.0	505.51278355391696	response	7	j		0.55	1.0	40.0	10.0			509.43730154889636	
58.0	505.51772300479934	certainty	7		105						1.0	509.44224099977873	2.3920607110485435
59.0	507.9097837158479	stim	0		9	0.55	1.0	28.0	7.0			511.8343017108273	0.30009758402593434
59.0	508.2098812998738	stim	1		15	0.55	1.0	28.0	7.0			512.1343992948532	0.49998123897239566
59.0	508.7098625388462	stim	2		18	0.55	1.0	28.0	7.0			512.6343805338256	0.5992160311434418
59.0	509.30907856998965	stim	3		45	0.55	1.0	28.0	7.0			513.233596564969	1.5007837358862162
59.0	510.80986230587587	stim	4		9	0.55	1.0	28.0	7.0			514.7343803008553	0.3000712380744517
59.0	511.1099335439503	stim	5		15	0.55	1.0	28.0	7.0			515.0344515389297	0.5000140138436109
59.0	511.60994755779393	stim	6		18	0.55	1.0	28.0	7.0			515.5344655527733	0.5993694120552391
59.0	512.2093169698492	stim	7		8	0.55	1.0	28.0	7.0			516.1338349648286	0.276445436058566
59.0	512.4793722908944	response	7	j		0.55	1.0	28.0	7.0			516.4038902858738	
59.0	512.4857624059077	choice	7		29					1.0		516.4102804008871	0.7013271930627525
59.0	513.1824002149515	response	7	l		0.55	1.0	28.0	7.0			517.1069182099309	
59.0	513.1870895989705	certainty	7		105						3.0	517.1116075939499	2.5227975118905306
60.0	515.709887110861	stim	0		9	0.55	1.0	19.0	7.0			519.6344051058404	0.29997020796872675
60.0	516.0098573188297	stim	1		15	0.55	1.0	19.0	7.0			519.9343753138091	0.5000236020423472
60.0	516.5098809208721	stim	2		18	0.55	1.0	19.0	7.0			520.4343989158515	0.5999514020513743
60.0	517.1098323229235	stim	3		45	0.55	1.0	19.0	7.0			521.0343503179029	1.4996931140776724
60.0	518.6095254370011	stim	4		9	0.55	1.0	19.0	7.0			522.5340434319805	0.3003280588891357
60.0	518.9098534958903	stim	5		15	0.55	1.0	19.0	7.0			522.8343714908697	0.5000427330378443
60.0	519.4098962289281	stim	6		18	0.55	1.0	19.0	7.0			523.3344142239075	0.5988124238792807
60.0	520.0087086528074	stim	7		0	0.55	1.0	19.0	7.0			523.9332266477868	0.012096191057935357
60.0	520.0150206238031	response	7	j		0.55	1.0	19.0	7.0			523.9395386187825	
60.0	520.0208048438653	choice	7		24					1.0		523.9453228388447	0.7945671151392162
60.0	520.7810052959248	response	7	k		0.55	1.0	19.0	7.0			524.7055232909042	
60.0	520.8153719590046	certainty	7		105						2.0	524.739889953984	2.694513649912551
61.0	523.5098856089171	stim	0		9	0.55	1.0	28.0	14.0			527.4344036038965	0.2998364099767059
61.0	523.8097220188938	stim	1		15	0.55	1.0	28.0	14.0			527.7342400138732	0.4993827170692384
61.0	524.309104735963	stim	2		18	0.55	1.0	28.0	14.0			528.2336227309424	0.5998938330449164
61.0	524.908998569008	stim	3		45	0.55	1.0	28.0	14.0			528.8335165639874	1.5007250867784023
61.0	526.4097236557864	stim	4		9	0.55	1.0	28.0	14.0			530.3342416507658	0.30017776717431843
61.0	526.7099014229607	stim	5		15	0.55	1.0	28.0	14.0			530.6344194179401	0.4991253309417516
61.0	527.2090267539024	stim	6		18	0.55	1.0	28.0	14.0			531.1335447488818	0.6007242249324918
61.0	527.8097509788349	stim	7		6	0.55	1.0	28.0	14.0			531.7342689738143	0.2094528740271926
61.0	528.0125442019198	response	7	k		0.55	1.0	28.0	14.0			531.9370621968992	
61.0	528.0192038528621	choice	7		25					2.0		531.9437218478415	0.631335767917335
61.0	528.6457807349507	response	7	semicolon		0.55	1.0	28.0	14.0			532.5702987299301	
61.0	528.6505396207795	certainty	7		105						4.0	532.5750576157589	2.6589914420619607
62.0	531.3095310628414	stim	0		9	0.55	1.0	14.0	7.0			535.2340490578208	0.2992746219970286
62.0	531.6088056848384	stim	1		15	0.55	1.0	14.0	7.0			535.5333236798178	0.5009434041567147
62.0	532.1097490889952	stim	2		18	0.55	1.0	14.0	7.0			536.0342670839746	0.5999341369606555
62.0	532.7096832259558	stim	3		45	0.55	1.0	14.0	7.0			536.6342012209352	1.4997514670249075
62.0	534.2094346929807	stim	4		9	0.55	1.0	14.0	7.0			538.1339526879601	0.3003013478592038
62.0	534.5097360408399	stim	5		15	0.55	1.0	14.0	7.0			538.4342540358193	0.49993503000587225
62.0	535.0096710708458	stim	6		18	0.55	1.0	14.0	7.0			538.9341890658252	0.5998641320038587
62.0	535.6095352028497	stim	7		39	0.55	1.0	14.0	7.0			539.534053197829	1.3096854030154645
62.0	536.9124616188928	response	7	k		0.55	1.0	14.0	7.0			540.8369796138722	
62.0	536.9192206058651	choice	7		64					2.0		540.8437386008445	0.8321907641366124
62.0	537.7463301958051	response	7	j		0.55	1.0	14.0	7.0			541.6708481907845	
62.0	537.7514113700017	certainty	7		105						1.0	541.6759293649811	1.3582988327834755
63.0	539.1097102027852	stim	0		9	0.55	1.0	33.0	20.0			543.0342281977646	0.29995391401462257
63.0	539.4096641167998	stim	1		15	0.55	1.0	33.0	20.0			543.3341821117792	0.49986800411716104
63.0	539.909532120917	stim	2		18	0.55	1.0	33.0	20.0			543.8340501158964	0.5988106580916792
63.0	540.5083427790087	stim	3		45	0.55	1.0	33.0	20.0			544.4328607739881	1.5011617518030107
63.0	542.0095045308117	stim	4		9	0.55	1.0	33.0	20.0			545.9340225257911	0.2987766379956156
63.0	542.3082811688073	stim	5		15	0.55	1.0	33.0	20.0			546.2327991637867	0.5013267891481519
63.0	542.8096079579554	stim	6		18	0.55	1.0	33.0	20.0			546.7341259529348	0.6001769078429788
63.0	543.4097848657984	stim	7		7	0.55	1.0	33.0	20.0			547.3343028607778	0.24040062120184302
63.0	543.6441534277983	response	7	k		0.55	1.0	33.0	20.0			547.5686714227777	
63.0	543.6501854870003	choice	7		28					2.0		547.5747034819797	0.700028478866443
63.0	544.3456414837856	response	7	l		0.55	1.0	33.0	20.0			548.270159478765	
63.0	544.3502139658667	certainty	7		105						3.0	548.2747319608461	2.559338697930798
64.0	546.9095526637975	stim	0		9	0.55	1.0	28.0	10.0			550.8340706587769	0.2998905701097101
64.0	547.2094432339072	stim	1		15	0.55	1.0	28.0	10.0			551.1339612288866	0.4993120839353651
64.0	547.7087553178426	stim	2		18	0.55	1.0	28.0	10.0			551.633273312822	0.6001426309812814
64.0	548.3088979488239	stim	3		45	0.55	1.0	28.0	10.0			552.2334159438033	1.500646071974188
64.0	549.8095440207981	stim	4		9	0.55	1.0	28.0	10.0			553.7340620157775	0.29986868519335985
64.0	550.1094127059914	stim	5		15	0.55	1.0	28.0	10.0			554.0339307009708	0.5001866777893156
64.0	550.6095993837807	stim	6		18	0.55	1.0	28.0	10.0			554.5341173787601	0.599826583173126
64.0	551.2094259669539	stim	7		12	0.55	1.0	28.0	10.0			555.1339439619333	0.4068458490073681
64.0	551.6102588288486	response	7	j		0.55	1.0	28.0	10.0			555.534776823828	
64.0	551.6162718159612	choice	7		34					1.0		555.5407898109406	0.7344818648416549
64.0	552.3457967699505	response	7	k		0.55	1.0	28.0	10.0			556.2703147649299	
64.0	552.3507536808029	certainty	7		105						2.0	556.2752716757823	2.3587967921048403
3.0	554.7095504729077	stim	0		150							558.6340684678871	4.99977963604033
3.0	559.6781099298969	response	0	space								563.6026279248763	
3.0	559.709330108948	stim	0		466							563.6338481039274	5.032652338035405
3.0	559.7136244839057	response	0	lcommand								563.6381424788851	
65.0	564.7419824469835	stim	0		9	0.55	1.0	56.0	28.0			568.6665004419629	0.29986002785153687
65.0	565.041842474835	stim	1		15	0.55	1.0	56.0	28.0			568.9663604698144	0.5008456071373075
65.0	565.5426880819723	stim	2		17	0.55	1.0	56.0	28.0			569.4672060769517	0.5663144199643284
65.0	566.1090025019366	stim	3		46	0.55	1.0	56.0	28.0			570.033520496916	1.5335408339742571
65.0	567.6425433359109	stim	4		9	0.55	1.0	56.0	28.0			571.5670613308903	0.29994900804013014
65.0	567.942492343951	stim	5		15	0.55	1.0	56.0	28.0			571.8670103389304	0.5001297239214182
65.0	568.4426220678724	stim	6		18	0.55	1.0	56.0	28.0			572.3671400628518	0.5999106550589204
65.0	569.0425327229314	stim	7		40	0.55	1.0	56.0	28.0			572.9670507179108	1.3419142269995064
65.0	570.3779769828543	response	7	k		0.55	1.0	56.0	28.0			574.3024949778337	
65.0	570.3844469499309	choice	7		65					2.0		574.3089649449103	0.8332038309890777
65.0	571.2125900047831	response	7	j		0.55	1.0	56.0	28.0			575.1371079997625	
65.0	571.2176507809199	certainty	7		105						1.0	575.1421687758993	1.324965301901102
66.0	572.542616082821	stim	0		9	0.55	1.0	8.0	7.0			576.4671340778004	0.30013322713784873
66.0	572.8427493099589	stim	1		15	0.55	1.0	8.0	7.0			576.7672673049383	0.4998881940264255
66.0	573.3426375039853	stim	2		18	0.55	1.0	8.0	7.0			577.2671554989647	0.6001999150030315
66.0	573.9428374189883	stim	3		45	0.55	1.0	8.0	7.0			577.8673554139677	1.4992925277911127
66.0	575.4421299467795	stim	4		9	0.55	1.0	8.0	7.0			579.3666479417589	0.2999081911984831
66.0	575.7420381379779	stim	5		15	0.55	1.0	8.0	7.0			579.6665561329573	0.5005490679759532
66.0	576.2425872059539	stim	6		18	0.55	1.0	8.0	7.0			580.1671052009333	0.5996890559326857
66.0	576.8422762618866	stim	7		9	0.55	1.0	8.0	7.0			580.766794256866	0.31028658896684647
66.0	577.1455459957942	response	7	k		0.55	1.0	8.0	7.0			581.0700639907736	
66.0	577.1525628508534	choice	7		31					2.0		581.0770808458328	0.7312480169348419
66.0	577.8789888930041	response	7	j		0.55	1.0	8.0	7.0			581.8035068879835	
66.0	577.8838108677883	certainty	7		105						1.0	581.8083288627677	2.4587836482096463
67.0	580.3425945159979	stim	0		9	0.55	1.0	66.0	28.0			584.2671125109773	0.29996852786280215
67.0	580.6425630438607	stim	1		15	0.55	1.0	66.0	28.0			584.5670810388401	0.49935820093378425
67.0	581.1419212447945	stim	2		17	0.55	1.0	66.0	28.0			585.0664392397739	0.5672192180063576
67.0	581.7091404628009	stim	3		46	0.55	1.0	66.0	28.0			585.6336584577803	1.5328794771339744
67.0	583.2420199399348	stim	4		9	0.55	1.0	66.0	28.0			587.1665379349142	0.3004930920433253
67.0	583.5425130319782	stim	5		15	0.55	1.0	66.0	28.0			587.4670310269576	0.5002549758646637
67.0	584.0427680078428	stim	6		18	0.55	1.0	66.0	28.0			587.9672860028222	0.5997816741000861
67.0	584.6425496819429	stim	7		3	0.55	1.0	66.0	28.0			588.5670676769223	0.10977827198803425
67.0	584.7457078399602	response	7	j		0.55	1.0	66.0	28.0			588.6702258349396	
67.0	584.752327953931	choice	7		25					1.0		588.6768459489103	0.7299361668992788
67.0	585.4774332479574	response	7	semicolon		0.55	1.0	66.0	28.0			589.4019512429368	
67.0	585.4822641208302	certainty	7		105						4.0	589.4067821158096	2.660281453980133
68.0	588.1425455748104	stim	0		9	0.55	1.0	47.0	28.0			592.0670635697898	0.2997904841322452
68.0	588.4423360589426	stim	1		15	0.55	1.0	47.0	28.0			592.366854053922	0.5001644678413868
68.0	588.942500526784	stim	2		18	0.55	1.0	47.0	28.0			592.8670185217634	0.600201518042013
68.0	589.542702044826	stim	3		45	0.55	1.0	47.0	28.0			593.4672200398054	1.499835859052837
68.0	591.0425379038788	stim	4		9	0.55	1.0	47.0	28.0			594.9670558988582	0.2999440929852426
68.0	591.3424819968641	stim	5		15	0.55	1.0	47.0	28.0			595.2669999918435	0.4998475229367614
68.0	591.8423295198008	stim	6		18	0.55	1.0	47.0	28.0			595.7668475147802	0.6002331071067601
68.0	592.4425626269076	stim	7		21	0.55	1.0	47.0	28.0			596.367080621887	0.7099167820997536
68.0	593.145543566905	response	7	k		0.55	1.0	47.0	28.0			597.0700615618844	
68.0	593.1524794090074	choice	7		48					2.0		597.0769974039868	0.8957984549924731
68.0	594.0128794298507	response	7	l		0.55	1.0	47.0	28.0			597.9373974248301	
68.0	594.0482778639998	certainty	7		105						3.0	597.9727958589792	1.894066555891186
69.0	595.942344419891	stim	0		9	0.55	1.0	33.0	10.0			599.8668624148704	0.30002877907827497
69.0	596.2423731989693	stim	1		15	0.55	1.0	33.0	10.0			600.1668911939487	0.5000452569220215
69.0	596.7424184558913	stim	2		18	0.55	1.0	33.0	10.0			600.6669364508707	0.6001395380590111
69.0	597.3425579939503	stim	3		45	0.55	1.0	33.0	10.0			601.2670759889297	1.4993412068579346
69.0	598.8418992008083	stim	4		9	0.55	1.0	33.0	10.0			602.7664171957877	0.30054078507237136
69.0	599.1424399858806	stim	5		15	0.55	1.0	33.0	10.0			603.06695798086	0.5004167361184955
69.0	599.6428567219991	stim	6		18	0.55	1.0	33.0	10.0			603.5673747169785	0.5992798157967627
69.0	600.2421365377959	stim	7		0	0.55	1.0	33.0	10.0			604.1666545327753	0.012784669175744057
69.0	600.249088114826	response	7	j		0.55	1.0	33.0	10.0			604.1736061098054	
69.0	600.2549212069716	choice	7		21					1.0		604.179439201951	0.6950028110295534
69.0	600.945185538847	response	7	k		0.55	1.0	33.0	10.0			604.8697035338264	
69.0	600.9499240180012	certainty	7		105						2.0	604.8744420129806	2.7924842548090965
70.0	603.7424082728103	stim	0		9	0.55	1.0	79.0	28.0			607.6669262677897	0.2993264470715076
70.0	604.0417347198818	stim	1		15	0.55	1.0	79.0	28.0			607.9662527148612	0.5001745610497892
70.0	604.5419092809316	stim	2		17	0.55	1.0	79.0	28.0			608.466427275911	0.5672017829492688
70.0	604.667401362909	response	2	k		0.55	1.0	79.0	28.0			608.5919193578884	
70.0	605.1091110638808	stim	3		46	0.55	1.0	79.0	28.0			609.0336290588602	1.533256652066484
70.0	606.6423677159473	stim	4		9	0.55	1.0	79.0	28.0			610.5668857109267	0.29999327403493226
70.0	606.9423609899823	stim	5		15	0.55	1.0	79.0	28.0			610.8668789849617	0.5001335318665951
70.0	607.4424945218489	stim	6		18	0.55	1.0	79.0	28.0			611.3670125168283	0.5995068210177124
70.0	608.0420013428666	stim	7		20	0.55	1.0	79.0	28.0			611.966519337846	0.6753181829117239
70.0	608.7106285248883	response	7	k		0.55	1.0	79.0	28.0			612.6351465198677	
70.0	608.7173195257783	choice	7		43					2.0		612.6418375207577	0.7666227391455323
70.0	609.4788106388878	response	7	j		0.55	1.0	79.0	28.0			613.4033286338672	
70.0	609.4839422649238	certainty	7		105						1.0	613.4084602599032	2.0584089178591967
71.0	611.542351182783	stim	0		9	0.55	1.0	5.0	5.0			615.4668691777624	0.2998695110436529
71.0	611.8422206938267	stim	1		15	0.55	1.0	5.0	5.0			615.7667386888061	0.5002305421512574
71.0	612.3424512359779	stim	2		18	0.55	1.0	5.0	5.0			616.2669692309573	0.5987960319034755
71.0	612.9412472678814	stim	3		45	0.55	1.0	5.0	5.0			616.8657652628608	1.5010319009888917
71.0	614.4422791688703	stim	4		9	0.55	1.0	5.0	5.0			618.3667971638497	0.3000330680515617
71.0	614.7423122369219	stim	5		15	0.55	1.0	5.0	5.0			618.6668302319013	0.5001386809162796
71.0	615.2424509178381	stim	6		18	0.55	1.0	5.0	5.0			619.1669689128175	0.5998831910546869
71.0	615.8423341088928	stim	7		5	0.55	1.0	5.0	5.0			619.7668521038722	0.17615697509609163
71.0	616.0119627940003	response	7	k		0.55	1.0	5.0	5.0			619.9364807889797	
71.0	616.0184910839889	choice	7		24					2.0		619.9430090789683	0.6294180378317833
71.0	616.6435762338806	response	7	j		0.55	1.0	5.0	5.0			620.56809422886	
71.0	616.6479091218207	certainty	7		105						1.0	620.5724271168001	2.6944132710341364
72.0	619.3423223928548	stim	0		9	0.55	1.0	56.0	20.0			623.2668403878342	0.29993521608412266
72.0	619.642257608939	stim	1		15	0.55	1.0	56.0	20.0			623.5667756039184	0.5000791558995843
72.0	620.1423367648385	stim	2		18	0.55	1.0	56.0	20.0			624.0668547598179	0.6000288559589535
72.0	620.7423656207975	stim	3		45	0.55	1.0	56.0	20.0			624.6668836157769	1.4998659421689808
72.0	622.2422315629665	stim	4		9	0.55	1.0	56.0	20.0			626.1667495579459	0.29992027883417904
72.0	622.5421518418007	stim	5		15	0.55	1.0	56.0	20.0			626.46666983678	0.500102706020698
72.0	623.0422545478214	stim	6		18	0.55	1.0	56.0	20.0			626.9667725428008	0.600115159060806
72.0	623.6423697068822	stim	7		9	0.55	1.0	56.0	20.0			627.5668877018616	0.3069738680496812
72.0	623.9431071348954	response	7	j		0.55	1.0	56.0	20.0			627.8676251298748	
72.0	623.9493435749318	choice	7		33					1.0		627.8738615699112	0.8012777189724147
72.0	624.7455739798024	response	7	k		0.55	1.0	56.0	20.0			628.6700919747818	
72.0	624.7506212939043	certainty	7		105						2.0	628.6751392888837	2.3914417480118573
73.0	627.1420630419161	stim	0		9	0.55	1.0	39.0	14.0			631.0665810368955	0.3003454180434346
73.0	627.4424084599596	stim	1		15	0.55	1.0	39.0	14.0			631.366926454939	0.49980250583030283
73.0	627.9422109657899	stim	2		18	0.55	1.0	39.0	14.0			631.8667289607693	0.5999969670083374
73.0	628.5422079327982	stim	3		45	0.55	1.0	39.0	14.0			632.4667259277776	1.499952457146719
73.0	630.0421603899449	stim	4		9	0.55	1.0	39.0	14.0			633.9666783849243	0.2994342069141567
73.0	630.3415945968591	stim	5		15	0.55	1.0	39.0	14.0			634.2661125918385	0.5007241980638355
73.0	630.8423187949229	stim	6		18	0.55	1.0	39.0	14.0			634.7668367899023	0.5998863759450614
73.0	631.442205170868	stim	7		12	0.55	1.0	39.0	14.0			635.3667231658474	0.4091362270992249
73.0	631.8450357369147	response	7	j		0.55	1.0	39.0	14.0			635.7695537318941	
73.0	631.8513413979672	choice	7		36					1.0		635.7758593929466	0.7961423229426146
73.0	632.6137853779364	response	7	k		0.55	1.0	39.0	14.0			636.5383033729158	
73.0	632.6474837209098	certainty	7		105						2.0	636.5720017158892	2.2946475150529295
74.0	634.9421312359627	stim	0		9	0.55	1.0	16.0	7.0			638.8666492309421	0.30001987400464714
74.0	635.2421511099674	stim	1		15	0.55	1.0	16.0	7.0			639.1666691049468	0.5000152089633048
74.0	635.7421663189307	stim	2		18	0.55	1.0	16.0	7.0			639.6666843139101	0.6001812189351767
74.0	636.3423475378659	stim	3		45	0.55	1.0	16.0	7.0			640.2668655328453	1.499779426958412
74.0	637.8421269648243	stim	4		9	0.55	1.0	16.0	7.0			641.7666449598037	0.3000601220410317
74.0	638.1421870868653	stim	5		15	0.55	1.0	16.0	7.0			642.0667050818447	0.49993328494019806
74.0	638.6421203718055	stim	6		18	0.55	1.0	16.0	7.0			642.5666383667849	0.5999841971788555
74.0	639.2421045689844	stim	7		10	0.55	1.0	16.0	7.0			643.1666225639638	0.33866707189008594
74.0	639.5451309089549	response	7	j		0.55	1.0	16.0	7.0			643.4696489039343	
74.0	639.5807716408744	choice	7		31					1.0		643.5052896358538	0.701942462939769
74.0	640.278113377979	response	7	k		0.55	1.0	16.0	7.0			644.2026313729584	
74.0	640.2827141038142	certainty	7		105						2.0	644.2072320987936	2.4593740440905094
75.0	642.7420881479047	stim	0		9	0.55	1.0	56.0	14.0			646.6666061428841	0.29926908388733864
75.0	643.0413572317921	stim	1		15	0.55	1.0	56.0	14.0			646.9658752267715	0.5007830210961401
75.0	643.5421402528882	stim	2		18	0.55	1.0	56.0	14.0			647.4666582478676	0.5999729780014604
75.0	644.1421132308897	stim	3		45	0.55	1.0	56.0	14.0			648.0666312258691	1.4998901151120663
75.0	645.6420033460017	stim	4		9	0.55	1.0	56.0	14.0			649.5665213409811	0.30014025792479515
75.0	645.9421436039265	stim	5		15	0.55	1.0	56.0	14.0			649.8666615989059	0.4998619679827243
75.0	646.4420055719092	stim	6		18	0.55	1.0	56.0	14.0			650.3665235668886	0.6001438440289348
75.0	647.0421494159382	stim	7		4	0.55	1.0	56.0	14.0			650.9666674109176	0.1404272939544171
75.0	647.176905693952	response	7	j		0.55	1.0	56.0	14.0			651.1014236889314	
75.0	647.1825767098926	choice	7		25					1.0		651.107094704872	0.6998718790709972
75.0	647.8777276407927	response	7	l		0.55	1.0	56.0	14.0			651.8022456357721	
75.0	647.8824485889636	certainty	7		105						3.0	651.806966583943	2.6597495558671653
76.0	650.5421981448308	stim	0		9	0.55	1.0	112.0	28.0			654.4667161398102	0.29985349299386144
76.0	650.8420516378246	stim	1		15	0.55	1.0	112.0	28.0			654.766569632804	0.523195608984679
76.0	651.3652472468093	stim	2		16	0.55	1.0	112.0	28.0			655.2897652417887	0.5768130091018975
76.0	651.9420602559112	stim	3		45	0.55	1.0	112.0	28.0			655.8665782508906	1.4998848289251328
76.0	653.4419450848363	stim	4		9	0.55	1.0	112.0	28.0			657.3664630798157	0.30009872396476567
76.0	653.7420438088011	stim	5		15	0.55	1.0	112.0	28.0			657.6665618037805	0.4999797360505909
76.0	654.2420235448517	stim	6		18	0.55	1.0	112.0	28.0			658.1665415398311	0.6000835581216961
76.0	654.8421071029734	stim	7		14	0.55	1.0	112.0	28.0			658.7666250979528	0.4743605440016836
76.0	655.3097404129803	response	7	j		0.55	1.0	112.0	28.0			659.2342584079597	
76.0	655.3164676469751	choice	7		36					1.0		659.2409856419545	0.7338894780259579
76.0	656.0452610848006	response	7	semicolon		0.55	1.0	112.0	28.0			659.96977907978	
76.0	656.050357125001	certainty	7		105						4.0	659.9748751199804	2.291838516946882
77.0	658.3421956419479	stim	0		9	0.55	1.0	10.0	5.0			662.2667136369273	0.2998426759149879
77.0	658.6420383178629	stim	1		15	0.55	1.0	10.0	5.0			662.5665563128423	0.4998639279510826
77.0	659.141902245814	stim	2		18	0.55	1.0	10.0	5.0			663.0664202407934	0.6002137439791113
77.0	659.7421159897931	stim	3		45	0.55	1.0	10.0	5.0			663.6666339847725	1.4998097370844334
77.0	661.2419257268775	stim	4		9	0.55	1.0	10.0	5.0			665.1664437218569	0.2997738500125706
77.0	661.5416995768901	stim	5		15	0.55	1.0	10.0	5.0			665.4662175718695	0.5002177890855819
77.0	662.0419173659757	stim	6		18	0.55	1.0	10.0	5.0			665.9664353609551	0.6001084088347852
77.0	662.6420257748105	stim	7		6	0.55	1.0	10.0	5.0			666.5665437697899	0.2092428330797702
77.0	662.8445876699407	response	7	j		0.55	1.0	10.0	5.0			666.7691056649201	
77.0	662.8512686078902	choice	7		39					1.0		666.7757866028696	1.0987255389336497
77.0	663.9450128288008	response	7	l		0.55	1.0	10.0	5.0			667.8695308237802	
77.0	663.9499941468239	certainty	7		105						3.0	667.8745121418033	2.1919096761848778
78.0	666.1419038230088	stim	0		9	0.55	1.0	16.0	10.0			670.0664218179882	0.299892415991053
78.0	666.4417962389998	stim	1		15	0.55	1.0	16.0	10.0			670.3663142339792	0.5002358458004892
78.0	666.9420320848003	stim	2		18	0.55	1.0	16.0	10.0			670.8665500797797	0.5998556450940669
78.0	667.5418877298944	stim	3		45	0.55	1.0	16.0	10.0			671.4664057248738	1.4999768750276417
78.0	669.041864604922	stim	4		9	0.55	1.0	16.0	10.0			672.9663825999014	0.3000314519740641
78.0	669.3418960568961	stim	5		15	0.55	1.0	16.0	10.0			673.2664140518755	0.49998555099591613
78.0	669.841881607892	stim	6		18	0.55	1.0	16.0	10.0			673.7663996028714	0.5999986769165844
78.0	670.4418802848086	stim	7		11	0.55	1.0	16.0	10.0			674.366398279788	0.3751204169820994
78.0	670.810121120885	response	7	k		0.55	1.0	16.0	10.0			674.7346391158644	
78.0	670.8170007017907	choice	7		35					2.0		674.7415186967701	0.7964282052125782
78.0	671.6092810819391	response	7	j		0.55	1.0	16.0	10.0			675.5337990769185	
78.0	671.6134289070033	certainty	7		105						1.0	675.5379469019827	2.3283808319829404
79.0	673.9418097389862	stim	0		9	0.55	1.0	20.0	10.0			677.8663277339656	0.3000857108272612
79.0	674.2418954498135	stim	1		15	0.55	1.0	20.0	10.0			678.1664134447929	0.49989769305102527
79.0	674.7417931428645	stim	2		18	0.55	1.0	20.0	10.0			678.6663111378439	0.6000941949896514
79.0	675.3418873378541	stim	3		45	0.55	1.0	20.0	10.0			679.2664053328335	1.499900328926742
79.0	676.8417876667809	stim	4		9	0.55	1.0	20.0	10.0			680.7663056617603	0.2990793890785426
79.0	677.1408670558594	stim	5		15	0.55	1.0	20.0	10.0			681.0653850508388	0.5005948420148343
79.0	677.6414618978743	stim	6		18	0.55	1.0	20.0	10.0			681.5659798928536	0.6002321240957826
79.0	678.24169402197	stim	7		28	0.55	1.0	20.0	10.0			682.1662120169494	0.9424976790323853
79.0	679.17738194298	response	7	k		0.55	1.0	20.0	10.0			683.1018999379594	
79.0	679.1841917010024	choice	7		48					2.0		683.1087096959818	0.6655150318983942
79.0	679.8448182509746	response	7	j		0.55	1.0	20.0	10.0			683.769336245954	
79.0	679.8497067329008	certainty	7		105						1.0	683.7742247278802	1.8919649389572442
80.0	681.7416716718581	stim	0		9	0.55	1.0	8.0	5.0			685.6661896668375	0.30007715011015534
80.0	682.0417488219682	stim	1		15	0.55	1.0	8.0	5.0			685.9662668169476	0.4999930979683995
80.0	682.5417419199366	stim	2		18	0.55	1.0	8.0	5.0			686.466259914916	0.6000912049785256
80.0	683.1418331249151	stim	3		45	0.55	1.0	8.0	5.0			687.0663511198945	1.4998337000142783
80.0	684.6416668249294	stim	4		9	0.55	1.0	8.0	5.0			688.5661848199088	0.2999748340807855
80.0	684.9416416590102	stim	5		15	0.55	1.0	8.0	5.0			688.8661596539896	0.5001170968171209
80.0	685.4417587558273	stim	6		18	0.55	1.0	8.0	5.0			689.3662767508067	0.5999506551306695
80.0	686.041709410958	stim	7		9	0.55	1.0	8.0	5.0			689.9662274059374	0.3093333470169455
80.0	686.3444522279315	response	7	j		0.55	1.0	8.0	5.0			690.2689702229109	
80.0	686.3510427579749	choice	7		35					1.0		690.2755607529543	0.8650763579644263
80.0	687.2112265028991	response	7	j		0.55	1.0	8.0	5.0			691.1357444978785	
80.0	687.2161191159394	certainty	7		105						1.0	691.1406371109188	2.325665406882763
3.0	689.5417845228221	stim	0		150							693.4663025178015	4.999815199058503
81.0	694.5415997218806	stim	0		9	1.0	0.55	20.0	23.0			698.46611771686	0.299750205129385
81.0	694.84134992701	stim	1		15	1.0	0.55	20.0	23.0			698.7658679219894	0.5000990899279714
81.0	695.341449016938	stim	2		18	1.0	0.55	20.0	23.0			699.2659670119174	0.6002330249175429
81.0	695.9416820418555	stim	3		45	1.0	0.55	20.0	23.0			699.8662000368349	1.49992589908652
81.0	697.441607940942	stim	4		9	1.0	0.55	20.0	23.0			701.3661259359214	0.29999563400633633
81.0	697.7416035749484	stim	5		15	1.0	0.55	20.0	23.0			701.6661215699278	0.5000059029553086
81.0	698.2416094779037	stim	6		18	1.0	0.55	20.0	23.0			702.1661274728831	0.6000639079138637
81.0	698.8416733858176	stim	7		22	1.0	0.55	20.0	23.0			702.766191380797	0.7412241401616484
81.0	699.5762413679622	response	7	j		1.0	0.55	20.0	23.0			703.5007593629416	
81.0	699.5828975259792	choice	7		46					1.0		703.5074155209586	0.8002639908809215
81.0	700.3781327370089	response	7	l		1.0	0.55	20.0	23.0			704.3026507319883	
81.0	700.3831615168601	certainty	7		105						3.0	704.3076795118395	1.9584079079795629
82.0	702.3415694248397	stim	0		9	1.0	0.55	14.0	33.0			706.2660874198191	0.29988457215949893
82.0	702.6414539969992	stim	1		15	1.0	0.55	14.0	33.0			706.5659719919786	0.5001292768865824
82.0	703.1415832738858	stim	2		18	1.0	0.55	14.0	33.0			707.0661012688652	0.5999625409021974
82.0	703.741545814788	stim	3		45	1.0	0.55	14.0	33.0			707.6660638097674	1.499955294188112
82.0	705.2415011089761	stim	4		9	1.0	0.55	14.0	33.0			709.1660191039555	0.3000505790114403
82.0	705.5415516879875	stim	5		15	1.0	0.55	14.0	33.0			709.4660696829669	0.4989566768053919
82.0	706.0405083647929	stim	6		18	1.0	0.55	14.0	33.0			709.9650263597723	0.600895093055442
82.0	706.6414034578484	stim	7		7	1.0	0.55	14.0	33.0			710.5659214528278	0.24102830793708563
82.0	706.8762781468686	response	7	k		1.0	0.55	14.0	33.0			710.800796141848	
82.0	706.8824317657854	choice	7		38					2.0		710.8069497607648	1.0323307521175593
82.0	707.9101814629976	response	7	k		1.0	0.55	14.0	33.0			711.834699457977	
82.0	707.914762517903	certainty	7		105						2.0	711.8392805128824	2.226801916025579
83.0	710.1415644339286	stim	0		9	1.0	0.55	5.0	5.0			714.066082428908	0.30002981587313116
83.0	710.4415942498017	stim	1		15	1.0	0.55	5.0	5.0			714.3661122447811	0.4992374961730093
83.0	710.9408317459747	stim	2		18	1.0	0.55	5.0	5.0			714.8653497409541	0.6006910619325936
83.0	711.5415228079073	stim	3		45	1.0	0.55	5.0	5.0			715.4660408028867	1.4997969579417259
83.0	713.041319765849	stim	4		9	1.0	0.55	5.0	5.0			716.9658377608284	0.3002785879652947
83.0	713.3415983538143	stim	5		15	1.0	0.55	5.0	5.0			717.2661163487937	0.49908956210128963
83.0	713.8406879159156	stim	6		18	1.0	0.55	5.0	5.0			717.765205910895	0.6007592589594424
83.0	714.4414471748751	stim	7		54	1.0	0.55	5.0	5.0			718.3659651698545	1.8096223019529134
83.0	716.2442515098955	response	7	k		1.0	0.55	5.0	5.0			720.168769504875	
83.0	716.251069476828	choice	7		85					2.0		720.1755874718074	1.032325561158359
83.0	717.2782569739502	response	7	j		1.0	0.55	5.0	5.0			721.2027749689296	
83.0	717.2833950379863	certainty	7		105						1.0	721.2079130329657	0.6579757379367948
84.0	717.9413707759231	stim	0		9	1.0	0.55	20.0	67.0			721.8658887709025	0.3000560470391065
84.0	718.2414268229622	stim	1		15	1.0	0.55	20.0	67.0			722.1659448179416	0.5000741230323911
84.0	718.7415009459946	stim	2		18	1.0	0.55	20.0	67.0			722.666018940974	0.5999696229118854
84.0	719.3414705689065	stim	3		45	1.0	0.55	20.0	67.0			723.2659885638859	1.4998291060328484
84.0	720.8412996749394	stim	4		9	1.0	0.55	20.0	67.0			724.7658176699188	0.30017553898505867
84.0	721.1414752139244	stim	5		15	1.0	0.55	20.0	67.0			725.0659932089038	0.49994133901782334
84.0	721.6414165529422	stim	6		17	1.0	0.55	20.0	67.0			725.5659345479216	0.5660110739991069
84.0	722.2074276269414	stim	7		4	1.0	0.55	20.0	67.0			726.1319456219207	0.14302471093833447
84.0	722.3439589699265	response	7	k		1.0	0.55	20.0	67.0			726.2684769649059	
84.0	722.3504523378797	choice	7		27					2.0		726.2749703328591	0.7653192731086165
84.0	723.1108612408862	response	7	l		1.0	0.55	20.0	67.0			727.0353792358655	
84.0	723.1157716109883	certainty	7		106						3.0	727.0402896059677	2.625590742798522
85.0	725.7413623537868	stim	0		9	1.0	0.55	7.0	19.0			729.6658803487662	0.2992683839984238
85.0	726.0406307377852	stim	1		15	1.0	0.55	7.0	19.0			729.9651487327646	0.5007422449998558
85.0	726.5413729827851	stim	2		18	1.0	0.55	7.0	19.0			730.4658909777645	0.6001642770133913
85.0	727.1415372597985	stim	3		45	1.0	0.55	7.0	19.0			731.0660552547779	1.4998692921362817
85.0	728.6414065519348	stim	4		9	1.0	0.55	7.0	19.0			732.5659245469142	0.2999554150737822
85.0	728.9413619670086	stim	5		15	1.0	0.55	7.0	19.0			732.865879961988	0.5001952319871634
85.0	729.4415571989957	stim	6		18	1.0	0.55	7.0	19.0			733.3660751939751	0.5990739888511598
85.0	730.0406311878469	stim	7		9	1.0	0.55	7.0	19.0			733.9651491828263	0.30825364612974226
85.0	730.3111362589989	response	7	k		1.0	0.55	7.0	19.0			734.2356542539783	
85.0	730.3488848339766	choice	7		36					2.0		734.273402828956	0.9005477179307491
85.0	731.2444042519201	response	7	k		1.0	0.55	7.0	19.0			735.1689222468995	
85.0	731.2494325519074	certainty	7		105						2.0	735.1739505468868	2.291878128889948
86.0	733.5413106807973	stim	0		9	1.0	0.55	28.0	94.0			737.4658286757767	0.2994122481904924
86.0	733.8407229289878	stim	1		15	1.0	0.55	28.0	94.0			737.7652409239672	0.5007255859673023
86.0	734.3414485149551	stim	2		18	1.0	0.55	28.0	94.0			738.2659665099345	0.6000394290313125
86.0	734.9414879439864	stim	3		45	1.0	0.55	28.0	94.0			738.8660059389658	1.4994889528024942
86.0	736.4409768967889	stim	4		9	1.0	0.55	28.0	94.0			740.3654948917683	0.30012292321771383
86.0	736.7410998200066	stim	5		15	1.0	0.55	28.0	94.0			740.665617814986	0.49964463990181684
86.0	737.2407444599085	stim	6		17	1.0	0.55	28.0	94.0			741.1652624548879	0.6001337000634521
86.0	737.8408781599719	stim	7		10	1.0	0.55	28.0	94.0			741.7653961549513	0.3431682998780161
86.0	738.177438856801	response	7	k		1.0	0.55	28.0	94.0			742.1019568517804	
86.0	738.1840464598499	choice	7		34					2.0		742.1085644548293	0.794902257155627
86.0	738.9748709858395	response	7	l		1.0	0.55	28.0	94.0			742.8993889808189	
86.0	738.9789487170056	certainty	7		105						3.0	742.903466711985	2.36229523899965
87.0	741.3412439560052	stim	0		9	1.0	0.55	14.0	28.0			745.2657619509846	0.30000282684341073
87.0	741.6412467828486	stim	1		15	1.0	0.55	14.0	28.0			745.565764777828	0.5016245790757239
87.0	742.1428713619243	stim	2		18	1.0	0.55	14.0	28.0			746.0673893569037	0.5983752540778369
87.0	742.7412466160022	stim	3		45	1.0	0.55	14.0	28.0			746.6657646109816	1.4998656818643212
87.0	744.2411122978665	stim	4		9	1.0	0.55	14.0	28.0			748.1656302928459	0.29974781395867467
87.0	744.5408601118252	stim	5		15	1.0	0.55	14.0	28.0			748.4653781068046	0.49902525497600436
87.0	745.0398853668012	stim	6		18	1.0	0.55	14.0	28.0			748.9644033617806	0.600370547035709
87.0	745.6402559138369	stim	7		32	1.0	0.55	14.0	28.0			749.5647739088163	1.0765480119735003
87.0	746.7103117278311	response	7	k		1.0	0.55	14.0	28.0			750.6348297228105	
87.0	746.7168039258104	choice	7		53					2.0		750.6413219207898	0.6994700531940907
87.0	747.4111488689668	response	7	j		1.0	0.55	14.0	28.0			751.3356668639462	
87.0	747.4162739790045	certainty	7		105						1.0	751.3407919739839	1.7249562807846814
88.0	749.1412302597892	stim	0		9	1.0	0.55	14.0	19.0			753.0657482547686	0.29979505203664303
88.0	749.4410253118258	stim	1		15	1.0	0.55	14.0	19.0			753.3655433068052	0.4999934940133244
88.0	749.9410188058391	stim	2		18	1.0	0.55	14.0	19.0			753.8655368008185	0.5997723629698157
88.0	750.5407911688089	stim	3		45	1.0	0.55	14.0	19.0			754.4653091637883	1.5002981161233038
88.0	752.0410892849322	stim	4		9	1.0	0.55	14.0	19.0			755.9656072799116	0.300134016899392
88.0	752.3412233018316	stim	5		15	1.0	0.55	14.0	19.0			756.265741296811	0.49999968614429235
88.0	752.8412229879759	stim	6		18	1.0	0.55	14.0	19.0			756.7657409829553	0.5999196688644588
88.0	753.4411426568404	stim	7		9	1.0	0.55	14.0	19.0			757.3656606518198	0.3095412771217525
88.0	753.7440915629268	response	7	j		1.0	0.55	14.0	19.0			757.6686095579062	
88.0	753.7506839339621	choice	7		32					1.0		757.6752019289415	0.7644736929796636
88.0	754.5104750858154	response	7	l		1.0	0.55	14.0	19.0			758.4349930807948	
88.0	754.5151576269418	certainty	7		105						3.0	758.4396756219212	2.425814763875678
89.0	756.9409723908175	stim	0		9	1.0	0.55	14.0	16.0			760.8654903857969	0.30020792107097805
89.0	757.2411803118885	stim	1		15	1.0	0.55	14.0	16.0			761.1656983068679	0.49981864797882736
89.0	757.7409989598673	stim	2		18	1.0	0.55	14.0	16.0			761.6655169548467	0.6001846371218562
89.0	758.3411835969891	stim	3		45	1.0	0.55	14.0	16.0			762.2657015919685	1.499885318800807
89.0	759.84106891579	stim	4		9	1.0	0.55	14.0	16.0			763.7655869107693	0.29992591915652156
89.0	760.1409948349465	stim	5		15	1.0	0.55	14.0	16.0			764.0655128299259	0.4999426200520247
89.0	760.6409374549985	stim	6		18	1.0	0.55	14.0	16.0			764.5654554499779	0.6001017468515784
89.0	761.2410392018501	stim	7		22	1.0	0.55	14.0	16.0			765.1655571968295	0.7428277861326933
89.0	761.97724043997	response	7	j		1.0	0.55	14.0	16.0			765.9017584349494	
89.0	761.9838669879828	choice	7		51					1.0		765.9083849829622	0.9655530948657542
89.0	762.9443856719881	response	7	l		1.0	0.55	14.0	16.0			766.8689036669675	
89.0	762.9494200828485	certainty	7		105						3.0	766.8739380778279	1.7916071240324527
90.0	764.741027206881	stim	0		9	1.0	0.55	7.0	8.0			768.6655452018604	0.30013249698095024
90.0	765.0411597038619	stim	1		15	1.0	0.55	7.0	8.0			768.9656776988413	0.5000638091005385
90.0	765.5412235129625	stim	2		18	1.0	0.55	7.0	8.0			769.4657415079419	0.5998069560155272
90.0	766.141030468978	stim	3		45	1.0	0.55	7.0	8.0			770.0655484639574	1.4999207858927548
90.0	767.6409512548707	stim	4		9	1.0	0.55	7.0	8.0			771.5654692498501	0.3000617059879005
90.0	767.9410129608586	stim	5		15	1.0	0.55	7.0	8.0			771.865530955838	0.49991105892695487
90.0	768.4409240197856	stim	6		18	1.0	0.55	7.0	8.0			772.365442014765	0.5994150401093066
90.0	769.0403390598949	stim	7		18	1.0	0.55	7.0	8.0			772.9648570548743	0.6098706170450896
90.0	769.6437087438535	response	7	j		1.0	0.55	7.0	8.0			773.5682267388329	
90.0	769.65020967694	choice	7		38					1.0		773.5747276719194	0.6622411978896707
90.0	770.2792363788467	response	7	j		1.0	0.55	7.0	8.0			774.2037543738261	
90.0	770.3124508748297	certainty	7		105						1.0	774.2369688698091	2.2284845190588385
91.0	772.5409353938885	stim	0		9	1.0	0.55	20.0	40.0			776.4654533888679	0.299843407003209
91.0	772.8407788008917	stim	1		15	1.0	0.55	20.0	40.0			776.7652967958711	0.49943675589747727
91.0	773.3402155567892	stim	2		18	1.0	0.55	20.0	40.0			777.2647335517686	0.600730141159147
91.0	773.9409456979483	stim	3		45	1.0	0.55	20.0	40.0			777.8654636929277	1.4999691338744015
91.0	775.4409148318227	stim	4		9	1.0	0.55	20.0	40.0			779.3654328268021	0.3000372510869056
91.0	775.7409520829096	stim	5		15	1.0	0.55	20.0	40.0			779.665470077889	0.49999307189136744
91.0	776.240945154801	stim	6		18	1.0	0.55	20.0	40.0			780.1654631497804	0.599569691112265
91.0	776.8405148459133	stim	7		15	1.0	0.55	20.0	40.0			780.7650328408927	0.5108929469715804
91.0	777.3448910289444	response	7	k		1.0	0.55	20.0	40.0			781.2694090239238	
91.0	777.3514077928849	choice	7		39					2.0		781.2759257878643	0.7978143431246281
91.0	778.1444678059779	response	7	k		1.0	0.55	20.0	40.0			782.0689858009573	
91.0	778.1492221360095	certainty	7		105						2.0	782.0737401309889	2.19135798397474
92.0	780.3405801199842	stim	0		9	1.0	0.55	5.0	7.0			784.2650981149636	0.30031711887568235
92.0	780.6408972388599	stim	1		15	1.0	0.55	5.0	7.0			784.5654152338393	0.4998675510287285
92.0	781.1407647898886	stim	2		18	1.0	0.55	5.0	7.0			785.065282784868	0.5998093930538744
92.0	781.7405741829425	stim	3		45	1.0	0.55	5.0	7.0			785.6650921779219	1.5003248830325902
92.0	783.2408990659751	stim	4		9	1.0	0.55	5.0	7.0			787.1654170609545	0.29995500785298645
92.0	783.5408540738281	stim	5		15	1.0	0.55	5.0	7.0			787.4653720688075	0.5001680981367826
92.0	784.0410221719649	stim	6		18	1.0	0.55	5.0	7.0			787.9655401669443	0.5998486259486526
92.0	784.6408707979135	stim	7		21	1.0	0.55	5.0	7.0			788.5653887928929	0.7093124559614807
92.0	785.3436826048419	response	7	k		1.0	0.55	5.0	7.0			789.2682005998213	
92.0	785.350183253875	choice	7		44					2.0		789.2747012488544	0.7646507010795176
92.0	786.1099070128985	response	7	l		1.0	0.55	5.0	7.0			790.0344250078779	
92.0	786.1148339549545	certainty	7		105						3.0	790.0393519499339	2.026022892910987
93.0	788.1408568478655	stim	0		9	1.0	0.55	28.0	39.0			792.0653748428449	0.300126827089116
93.0	788.4409836749546	stim	1		15	1.0	0.55	28.0	39.0			792.365501669934	0.4998400209005922
93.0	788.9408236958552	stim	2		18	1.0	0.55	28.0	39.0			792.8653416908346	0.6000645449385047
93.0	789.5408882407937	stim	3		45	1.0	0.55	28.0	39.0			793.4654062357731	1.4999223651830107
93.0	791.0408106059767	stim	4		9	1.0	0.55	28.0	39.0			794.9653286009561	0.3000137638300657
93.0	791.3408243698068	stim	5		15	1.0	0.55	28.0	39.0			795.2653423647862	0.5001963181421161
93.0	791.8410206879489	stim	6		18	1.0	0.55	28.0	39.0			795.7655386829283	0.5997709329240024
93.0	792.4407916208729	stim	7		32	1.0	0.55	28.0	39.0			796.3653096158523	1.0770899450872093
93.0	793.5103707469534	response	7	k		1.0	0.55	28.0	39.0			797.4348887419328	
93.0	793.5178815659601	choice	7		53					2.0		797.4423995609395	0.6970789388287812
93.0	794.2100870527793	response	7	l		1.0	0.55	28.0	39.0			798.1346050477587	
93.0	794.2149605047889	certainty	7		105						3.0	798.1394784997683	1.7258533341810107
94.0	795.9408138389699	stim	0		9	1.0	0.55	5.0	8.0			799.8653318339493	0.2998114030342549
94.0	796.2406252420042	stim	1		15	1.0	0.55	5.0	8.0			800.1651432369836	0.500202780822292
94.0	796.7408280228265	stim	2		18	1.0	0.55	5.0	8.0			800.6653460178059	0.5996751820202917
94.0	797.3405032048468	stim	3		45	1.0	0.55	5.0	8.0			801.2650211998262	1.500379306031391
94.0	798.8408825108781	stim	4		9	1.0	0.55	5.0	8.0			802.7654005058575	0.2996704790275544
